Timestamp,Accelerometer_X,Accelerometer_Y,Accelerometer_Z,Gyroscope_X,Gyroscope_Y,Gyroscope_Z,Magnetometer_X,Magnetometer_Y,Magnetometer_Z,Abs_Pressure,Temperature
75667,0.00018009004502251257,-0.0051925962981490825,-9.823290505252627,5.002501250625313e-06,1.0005002501250626e-05,-1.0005002501250626e-05,0,0,0,44.93
75672,0.00018009004502251257,-0.015192596298149078,-9.813290505252628,5.002501250625313e-06,1.0005002501250626e-05,-1.0005002501250626e-05,0,0,0,44.93
75677,0.00018009004502251257,-0.0051925962981490825,-9.813290505252628,5.002501250625313e-06,1.0005002501250626e-05,-1.0005002501250626e-05,0,0,0,45.0
75682,0.00018009004502251257,-0.0051925962981490825,-9.813290505252628,5.002501250625313e-06,1.0005002501250626e-05,-1.0005002501250626e-05,0,0,0,45.0
75687,0.00018009004502251257,-0.0051925962981490825,-9.803290505252628,5.002501250625313e-06,1.0005002501250626e-05,-1.0005002501250626e-05,0,0,0,45.06
75692,0.00018009004502251257,-0.0051925962981490825,-9.803290505252628,5.002501250625313e-06,1.0005002501250626e-05,-1.0005002501250626e-05,0,0,0,44.87
75707,0.010180090045022513,-0.0051925962981490825,-9.813290505252628,5.002501250625313e-06,1.0005002501250626e-05,-1.0005002501250626e-05,0,0,0,45.0
75727,0.00018009004502251257,0.0048074037018509125,-9.813290505252628,5.002501250625313e-06,1.0005002501250626e-05,-1.0005002501250626e-05,0,0,0,45.25
75737,0.00018009004502251257,0.0048074037018509125,-9.813290505252628,5.002501250625313e-06,1.0005002501250626e-05,-1.0005002501250626e-05,0,0,0,45.12
75747,0.00018009004502251257,-0.0051925962981490825,-9.813290505252628,5.002501250625313e-06,1.0005002501250626e-05,-1.0005002501250626e-05,0,0,0,45.0
75757,0.00018009004502251257,-0.0051925962981490825,-9.813290505252628,5.002501250625313e-06,1.0005002501250626e-05,-1.0005002501250626e-05,0,0,0,45.25
75767,0.00018009004502251257,-0.0051925962981490825,-9.813290505252628,5.002501250625313e-06,1.0005002501250626e-05,-1.0005002501250626e-05,0,0,0,45.0
75777,0.00018009004502251257,-0.0051925962981490825,-9.813290505252628,5.002501250625313e-06,1.0005002501250626e-05,-1.0005002501250626e-05,0,0,0,45.0
75787,0.00018009004502251257,0.0048074037018509125,-9.813290505252628,5.002501250625313e-06,1.0005002501250626e-05,-1.0005002501250626e-05,0,0,0,45.12
75797,0.00018009004502251257,0.0048074037018509125,-9.813290505252628,5.002501250625313e-06,1.0005002501250626e-05,-1.0005002501250626e-05,0,0,0,44.87
75807,0.00018009004502251257,0.0048074037018509125,-9.813290505252628,5.002501250625313e-06,1.0005002501250626e-05,-1.0005002501250626e-05,0,0,0,45.0
75817,0.00018009004502251257,0.0048074037018509125,-9.803290505252628,5.002501250625313e-06,1.0005002501250626e-05,-1.0005002501250626e-05,0,0,0,44.93
75827,0.00018009004502251257,-0.0051925962981490825,-9.813290505252628,5.002501250625313e-06,1.0005002501250626e-05,-1.0005002501250626e-05,0,0,0,45.25
75837,0.00018009004502251257,-0.0051925962981490825,-9.813290505252628,5.002501250625313e-06,1.0005002501250626e-05,-1.0005002501250626e-05,0,0,0,45.31
75847,0.00018009004502251257,-0.0051925962981490825,-9.813290505252628,5.002501250625313e-06,1.0005002501250626e-05,-1.0005002501250626e-05,0,0,0,45.25
75857,0.00018009004502251257,0.0048074037018509125,-9.803290505252628,5.002501250625313e-06,1.0005002501250626e-05,-1.0005002501250626e-05,0,0,0,45.12
75867,0.00018009004502251257,0.014807403701850921,-9.803290505252628,5.002501250625313e-06,1.0005002501250626e-05,-1.0005002501250626e-05,0,0,0,45.31
75877,-0.009819909954977488,0.014807403701850921,-9.813290505252628,5.002501250625313e-06,1.0005002501250626e-05,-1.0005002501250626e-05,0,0,0,45.12
75887,-0.009819909954977488,-0.0051925962981490825,-9.813290505252628,5.002501250625313e-06,1.0005002501250626e-05,-1.0005002501250626e-05,0,0,0,45.0
75897,0.00018009004502251257,-0.0051925962981490825,-9.803290505252628,5.002501250625313e-06,1.0005002501250626e-05,-1.0005002501250626e-05,0,0,0,45.12
75907,-0.009819909954977488,-0.0051925962981490825,-9.803290505252628,5.002501250625313e-06,1.0005002501250626e-05,-1.0005002501250626e-05,0,0,0,45.12
75917,0.00018009004502251257,0.0048074037018509125,-9.813290505252628,5.002501250625313e-06,1.0005002501250626e-05,-1.0005002501250626e-05,0,0,0,45.12
75927,0.010180090045022513,0.0048074037018509125,-9.813290505252628,5.002501250625313e-06,1.0005002501250626e-05,-1.0005002501250626e-05,0,0,0,45.0
75937,0.00018009004502251257,-0.0051925962981490825,-9.813290505252628,5.002501250625313e-06,1.0005002501250626e-05,-1.0005002501250626e-05,0,0,0,45.25
75947,0.00018009004502251257,-0.0051925962981490825,-9.813290505252628,5.002501250625313e-06,1.0005002501250626e-05,-1.0005002501250626e-05,0,0,0,45.12
75957,0.00018009004502251257,0.0048074037018509125,-9.813290505252628,5.002501250625313e-06,1.0005002501250626e-05,-1.0005002501250626e-05,0,0,0,45.0
75967,0.00018009004502251257,0.0048074037018509125,-9.813290505252628,5.002501250625313e-06,1.0005002501250626e-05,-1.0005002501250626e-05,0,0,0,45.12
75977,0.00018009004502251257,0.0048074037018509125,-9.813290505252628,5.002501250625313e-06,1.0005002501250626e-05,-1.0005002501250626e-05,0,0,0,45.31
75987,0.010180090045022513,0.0048074037018509125,-9.813290505252628,5.002501250625313e-06,1.0005002501250626e-05,-1.0005002501250626e-05,0,0,0,45.06
75997,0.010180090045022513,-0.0051925962981490825,-9.813290505252628,5.002501250625313e-06,1.0005002501250626e-05,-1.0005002501250626e-05,0,0,0,44.93
76007,0.00018009004502251257,-0.0051925962981490825,-9.813290505252628,5.002501250625313e-06,1.0005002501250626e-05,-1.0005002501250626e-05,0,0,0,45.25
76017,0.00018009004502251257,0.0048074037018509125,-9.813290505252628,5.002501250625313e-06,1.0005002501250626e-05,-1.0005002501250626e-05,0,0,0,44.93
76027,0.00018009004502251257,0.0048074037018509125,-9.803290505252628,5.002501250625313e-06,1.0005002501250626e-05,-1.0005002501250626e-05,0,0,0,44.81
76037,0.00018009004502251257,0.0048074037018509125,-9.803290505252628,5.002501250625313e-06,1.0005002501250626e-05,0.009989994997498749,0,0,0,44.87
76047,-0.009819909954977488,0.0048074037018509125,-9.813290505252628,5.002501250625313e-06,1.0005002501250626e-05,-1.0005002501250626e-05,0,0,0,45.0
76057,-0.009819909954977488,0.0048074037018509125,-9.803290505252628,5.002501250625313e-06,1.0005002501250626e-05,-1.0005002501250626e-05,0,0,0,45.0
76067,-0.009819909954977488,-0.0051925962981490825,-9.803290505252628,5.002501250625313e-06,1.0005002501250626e-05,-1.0005002501250626e-05,0,0,0,45.12
76077,0.00018009004502251257,-0.0051925962981490825,-9.803290505252628,5.002501250625313e-06,1.0005002501250626e-05,-1.0005002501250626e-05,0,0,0,45.0
76087,0.00018009004502251257,-0.0051925962981490825,-9.803290505252628,5.002501250625313e-06,1.0005002501250626e-05,-1.0005002501250626e-05,0,0,0,45.25
76097,0.00018009004502251257,-0.0051925962981490825,-9.803290505252628,5.002501250625313e-06,1.0005002501250626e-05,-1.0005002501250626e-05,0,0,0,45.06
76107,0.00018009004502251257,-0.0051925962981490825,-9.813290505252628,5.002501250625313e-06,1.0005002501250626e-05,-1.0005002501250626e-05,0,0,0,45.12
76117,-0.009819909954977488,-0.0051925962981490825,-9.823290505252627,5.002501250625313e-06,1.0005002501250626e-05,-1.0005002501250626e-05,0,0,0,45.25
76127,-0.009819909954977488,0.0048074037018509125,-9.813290505252628,5.002501250625313e-06,1.0005002501250626e-05,0.009989994997498749,0,0,0,45.0
76137,-0.009819909954977488,0.014807403701850921,-9.803290505252628,5.002501250625313e-06,1.0005002501250626e-05,-1.0005002501250626e-05,0,0,0,45.12
76147,0.00018009004502251257,0.0048074037018509125,-9.803290505252628,5.002501250625313e-06,1.0005002501250626e-05,-1.0005002501250626e-05,0,0,0,45.0
76157,0.00018009004502251257,-0.0051925962981490825,-9.803290505252628,5.002501250625313e-06,1.0005002501250626e-05,-1.0005002501250626e-05,0,0,0,45.0
76167,-0.009819909954977488,-0.0051925962981490825,-9.803290505252628,5.002501250625313e-06,1.0005002501250626e-05,-1.0005002501250626e-05,0,0,0,45.25
76177,0.00018009004502251257,0.0048074037018509125,-9.813290505252628,5.002501250625313e-06,1.0005002501250626e-05,-1.0005002501250626e-05,0,0,0,44.93
76187,0.010180090045022513,0.0048074037018509125,-9.813290505252628,5.002501250625313e-06,1.0005002501250626e-05,-1.0005002501250626e-05,0,0,0,45.12
76197,0.00018009004502251257,0.0048074037018509125,-9.813290505252628,5.002501250625313e-06,1.0005002501250626e-05,-1.0005002501250626e-05,0,0,0,45.31
76207,0.00018009004502251257,0.0048074037018509125,-9.813290505252628,5.002501250625313e-06,1.0005002501250626e-05,-1.0005002501250626e-05,0,0,0,45.12
76217,-0.009819909954977488,0.0048074037018509125,-9.803290505252628,5.002501250625313e-06,1.0005002501250626e-05,-1.0005002501250626e-05,0,0,0,45.06
76227,-0.009819909954977488,0.0048074037018509125,-9.813290505252628,5.002501250625313e-06,1.0005002501250626e-05,-1.0005002501250626e-05,0,0,0,45.0
76237,-0.009819909954977488,-0.0051925962981490825,-9.813290505252628,5.002501250625313e-06,1.0005002501250626e-05,-1.0005002501250626e-05,0,0,0,45.25
76247,0.00018009004502251257,-0.0051925962981490825,-9.813290505252628,5.002501250625313e-06,1.0005002501250626e-05,-1.0005002501250626e-05,0,0,0,45.25
76257,0.00018009004502251257,0.0048074037018509125,-9.813290505252628,5.002501250625313e-06,1.0005002501250626e-05,-1.0005002501250626e-05,0,0,0,45.12
76267,0.00018009004502251257,0.0048074037018509125,-9.813290505252628,5.002501250625313e-06,1.0005002501250626e-05,-1.0005002501250626e-05,0,0,0,44.87
76277,-0.009819909954977488,0.0048074037018509125,-9.823290505252627,5.002501250625313e-06,1.0005002501250626e-05,-1.0005002501250626e-05,0,0,0,45.12
76287,-0.009819909954977488,0.0048074037018509125,-9.823290505252627,5.002501250625313e-06,1.0005002501250626e-05,-1.0005002501250626e-05,0,0,0,45.0
76297,0.00018009004502251257,-0.0051925962981490825,-9.813290505252628,5.002501250625313e-06,1.0005002501250626e-05,-1.0005002501250626e-05,0,0,0,45.0
76307,0.00018009004502251257,-0.0051925962981490825,-9.803290505252628,5.002501250625313e-06,1.0005002501250626e-05,-1.0005002501250626e-05,0,0,0,45.12
76317,0.010180090045022513,0.0048074037018509125,-9.803290505252628,5.002501250625313e-06,1.0005002501250626e-05,-1.0005002501250626e-05,0,0,0,45.06
76327,0.00018009004502251257,0.0048074037018509125,-9.813290505252628,5.002501250625313e-06,1.0005002501250626e-05,-1.0005002501250626e-05,0,0,0,45.31
76337,0.00018009004502251257,-0.0051925962981490825,-9.803290505252628,5.002501250625313e-06,1.0005002501250626e-05,-1.0005002501250626e-05,0,0,0,45.0
76347,0.00018009004502251257,-0.015192596298149078,-9.803290505252628,5.002501250625313e-06,1.0005002501250626e-05,-1.0005002501250626e-05,0,0,0,45.12
76357,0.010180090045022513,-0.015192596298149078,-9.813290505252628,5.002501250625313e-06,1.0005002501250626e-05,-1.0005002501250626e-05,0,0,0,44.93
76367,0.00018009004502251257,-0.0051925962981490825,-9.813290505252628,5.002501250625313e-06,1.0005002501250626e-05,-1.0005002501250626e-05,0,0,0,45.0
76377,-0.009819909954977488,0.0048074037018509125,-9.803290505252628,5.002501250625313e-06,1.0005002501250626e-05,-1.0005002501250626e-05,0,0,0,45.12
76387,-0.009819909954977488,0.0048074037018509125,-9.813290505252628,5.002501250625313e-06,1.0005002501250626e-05,-1.0005002501250626e-05,0,0,0,45.0
76397,-0.009819909954977488,0.0048074037018509125,-9.813290505252628,5.002501250625313e-06,1.0005002501250626e-05,-1.0005002501250626e-05,0,0,0,44.93
76407,0.00018009004502251257,0.0048074037018509125,-9.813290505252628,5.002501250625313e-06,1.0005002501250626e-05,-1.0005002501250626e-05,0,0,0,45.06
76417,0.00018009004502251257,-0.0051925962981490825,-9.813290505252628,5.002501250625313e-06,1.0005002501250626e-05,-1.0005002501250626e-05,0,0,0,45.12
76427,0.00018009004502251257,0.0048074037018509125,-9.813290505252628,5.002501250625313e-06,1.0005002501250626e-05,-1.0005002501250626e-05,0,0,0,45.25
76437,0.00018009004502251257,0.0048074037018509125,-9.813290505252628,5.002501250625313e-06,1.0005002501250626e-05,-1.0005002501250626e-05,0,0,0,45.0
76447,0.00018009004502251257,-0.0051925962981490825,-9.813290505252628,5.002501250625313e-06,1.0005002501250626e-05,-1.0005002501250626e-05,0,0,0,45.12
76457,0.010180090045022513,0.0048074037018509125,-9.813290505252628,5.002501250625313e-06,1.0005002501250626e-05,-1.0005002501250626e-05,0,0,0,45.12
76467,0.00018009004502251257,0.0048074037018509125,-9.823290505252627,5.002501250625313e-06,1.0005002501250626e-05,-1.0005002501250626e-05,0,0,0,45.12
76477,0.00018009004502251257,-0.0051925962981490825,-9.813290505252628,5.002501250625313e-06,1.0005002501250626e-05,-1.0005002501250626e-05,0,0,0,45.0
76487,-0.009819909954977488,-0.0051925962981490825,-9.813290505252628,5.002501250625313e-06,1.0005002501250626e-05,-1.0005002501250626e-05,0,0,0,44.93
76497,0.00018009004502251257,0.0048074037018509125,-9.813290505252628,5.002501250625313e-06,1.0005002501250626e-05,-1.0005002501250626e-05,0,0,0,45.12
76507,0.00018009004502251257,0.0048074037018509125,-9.813290505252628,5.002501250625313e-06,1.0005002501250626e-05,-1.0005002501250626e-05,0,0,0,45.12
76517,0.00018009004502251257,0.0048074037018509125,-9.813290505252628,5.002501250625313e-06,1.0005002501250626e-05,-1.0005002501250626e-05,0,0,0,44.75
76527,0.00018009004502251257,-0.0051925962981490825,-9.813290505252628,5.002501250625313e-06,1.0005002501250626e-05,-1.0005002501250626e-05,0,0,0,45.12
76537,0.00018009004502251257,-0.015192596298149078,-9.803290505252628,5.002501250625313e-06,1.0005002501250626e-05,-1.0005002501250626e-05,0,0,0,45.12
76547,0.00018009004502251257,-0.0051925962981490825,-9.813290505252628,5.002501250625313e-06,1.0005002501250626e-05,-1.0005002501250626e-05,0,0,0,44.81
76557,0.00018009004502251257,-0.0051925962981490825,-9.813290505252628,5.002501250625313e-06,1.0005002501250626e-05,-1.0005002501250626e-05,0,0,0,44.93
76567,0.00018009004502251257,-0.0051925962981490825,-9.813290505252628,5.002501250625313e-06,1.0005002501250626e-05,-1.0005002501250626e-05,0,0,0,45.25
76577,-0.009819909954977488,-0.0051925962981490825,-9.813290505252628,5.002501250625313e-06,1.0005002501250626e-05,-1.0005002501250626e-05,0,0,0,45.12
76587,0.00018009004502251257,-0.0051925962981490825,-9.813290505252628,5.002501250625313e-06,1.0005002501250626e-05,-1.0005002501250626e-05,0,0,0,45.0
76597,0.010180090045022513,0.0048074037018509125,-9.813290505252628,5.002501250625313e-06,1.0005002501250626e-05,-1.0005002501250626e-05,0,0,0,45.12
76607,0.010180090045022513,0.014807403701850921,-9.813290505252628,5.002501250625313e-06,1.0005002501250626e-05,-1.0005002501250626e-05,0,0,0,45.06
76617,0.010180090045022513,0.014807403701850921,-9.823290505252627,5.002501250625313e-06,1.0005002501250626e-05,-1.0005002501250626e-05,0,0,0,45.06
76627,0.00018009004502251257,0.0048074037018509125,-9.813290505252628,5.002501250625313e-06,1.0005002501250626e-05,-1.0005002501250626e-05,0,0,0,45.0
76637,0.00018009004502251257,0.0048074037018509125,-9.813290505252628,5.002501250625313e-06,1.0005002501250626e-05,-1.0005002501250626e-05,0,0,0,45.25
76647,0.00018009004502251257,-0.0051925962981490825,-9.803290505252628,5.002501250625313e-06,1.0005002501250626e-05,-1.0005002501250626e-05,0,0,0,45.0
76657,0.00018009004502251257,-0.0051925962981490825,-9.803290505252628,5.002501250625313e-06,1.0005002501250626e-05,-1.0005002501250626e-05,0,0,0,44.87
76667,0.00018009004502251257,0.0048074037018509125,-9.813290505252628,5.002501250625313e-06,1.0005002501250626e-05,-1.0005002501250626e-05,0,0,0,45.06
76677,0.00018009004502251257,0.0048074037018509125,-9.813290505252628,5.002501250625313e-06,1.0005002501250626e-05,-1.0005002501250626e-05,0,0,0,45.25
76687,-0.009819909954977488,-0.0051925962981490825,-9.813290505252628,5.002501250625313e-06,1.0005002501250626e-05,-1.0005002501250626e-05,0,0,0,45.12
76697,0.00018009004502251257,-0.015192596298149078,-9.813290505252628,5.002501250625313e-06,1.0005002501250626e-05,-1.0005002501250626e-05,0,0,0,45.12
76707,0.00018009004502251257,-0.015192596298149078,-9.813290505252628,5.002501250625313e-06,1.0005002501250626e-05,-1.0005002501250626e-05,0,0,0,44.87
76717,0.00018009004502251257,-0.0051925962981490825,-9.813290505252628,5.002501250625313e-06,1.0005002501250626e-05,-1.0005002501250626e-05,0,0,0,45.0
76727,0.00018009004502251257,0.0048074037018509125,-9.813290505252628,5.002501250625313e-06,1.0005002501250626e-05,-1.0005002501250626e-05,0,0,0,45.25
76737,0.00018009004502251257,0.014807403701850921,-9.823290505252627,5.002501250625313e-06,1.0005002501250626e-05,-1.0005002501250626e-05,0,0,0,44.93
76747,0.00018009004502251257,-0.0051925962981490825,-9.813290505252628,5.002501250625313e-06,1.0005002501250626e-05,-1.0005002501250626e-05,0,0,0,45.12
76757,0.00018009004502251257,0.0048074037018509125,-9.803290505252628,5.002501250625313e-06,1.0005002501250626e-05,-1.0005002501250626e-05,0,0,0,44.75
76767,-0.009819909954977488,0.0048074037018509125,-9.813290505252628,5.002501250625313e-06,1.0005002501250626e-05,-1.0005002501250626e-05,0,0,0,45.12
76777,0.00018009004502251257,0.014807403701850921,-9.813290505252628,5.002501250625313e-06,1.0005002501250626e-05,-1.0005002501250626e-05,0,0,0,45.0
76787,0.00018009004502251257,0.0048074037018509125,-9.813290505252628,5.002501250625313e-06,1.0005002501250626e-05,-1.0005002501250626e-05,0,0,0,45.31
76797,0.00018009004502251257,0.0048074037018509125,-9.823290505252627,5.002501250625313e-06,1.0005002501250626e-05,-1.0005002501250626e-05,0,0,0,45.0
76807,0.010180090045022513,0.0048074037018509125,-9.813290505252628,5.002501250625313e-06,1.0005002501250626e-05,-1.0005002501250626e-05,0,0,0,45.25
76817,0.010180090045022513,0.0048074037018509125,-9.813290505252628,5.002501250625313e-06,1.0005002501250626e-05,-1.0005002501250626e-05,0,0,0,44.87
76827,0.010180090045022513,0.0048074037018509125,-9.813290505252628,5.002501250625313e-06,1.0005002501250626e-05,-1.0005002501250626e-05,0,0,0,45.25
76837,0.010180090045022513,-0.0051925962981490825,-9.803290505252628,5.002501250625313e-06,1.0005002501250626e-05,-1.0005002501250626e-05,0,0,0,45.0
76847,0.00018009004502251257,-0.0051925962981490825,-9.803290505252628,5.002501250625313e-06,1.0005002501250626e-05,-1.0005002501250626e-05,0,0,0,45.0
76857,0.00018009004502251257,-0.0051925962981490825,-9.803290505252628,5.002501250625313e-06,1.0005002501250626e-05,-1.0005002501250626e-05,0,0,0,45.12
76867,0.00018009004502251257,-0.0051925962981490825,-9.813290505252628,5.002501250625313e-06,1.0005002501250626e-05,-1.0005002501250626e-05,0,0,0,45.0
76877,0.00018009004502251257,0.0048074037018509125,-9.823290505252627,5.002501250625313e-06,1.0005002501250626e-05,-1.0005002501250626e-05,0,0,0,45.25
76887,0.010180090045022513,0.0048074037018509125,-9.813290505252628,5.002501250625313e-06,1.0005002501250626e-05,-1.0005002501250626e-05,0,0,0,45.31
76897,0.010180090045022513,-0.0051925962981490825,-9.813290505252628,5.002501250625313e-06,1.0005002501250626e-05,-1.0005002501250626e-05,0,0,0,45.12
76907,0.00018009004502251257,-0.0051925962981490825,-9.813290505252628,5.002501250625313e-06,1.0005002501250626e-05,-1.0005002501250626e-05,0,0,0,45.12
76917,0.00018009004502251257,-0.0051925962981490825,-9.813290505252628,5.002501250625313e-06,1.0005002501250626e-05,-1.0005002501250626e-05,0,0,0,45.0
76927,0.00018009004502251257,0.0048074037018509125,-9.813290505252628,5.002501250625313e-06,1.0005002501250626e-05,-1.0005002501250626e-05,0,0,0,45.06
76937,0.00018009004502251257,-0.0051925962981490825,-9.823290505252627,5.002501250625313e-06,1.0005002501250626e-05,-1.0005002501250626e-05,0,0,0,45.0
76947,0.00018009004502251257,-0.0051925962981490825,-9.823290505252627,5.002501250625313e-06,1.0005002501250626e-05,-1.0005002501250626e-05,0,0,0,45.0
76957,0.00018009004502251257,-0.0051925962981490825,-9.813290505252628,5.002501250625313e-06,1.0005002501250626e-05,-1.0005002501250626e-05,0,0,0,45.12
76967,0.010180090045022513,-0.0051925962981490825,-9.803290505252628,5.002501250625313e-06,1.0005002501250626e-05,-1.0005002501250626e-05,0,0,0,45.0
76977,0.00018009004502251257,-0.0051925962981490825,-9.813290505252628,5.002501250625313e-06,1.0005002501250626e-05,-1.0005002501250626e-05,0,0,0,45.25
76987,0.00018009004502251257,-0.0051925962981490825,-9.823290505252627,5.002501250625313e-06,1.0005002501250626e-05,-1.0005002501250626e-05,0,0,0,44.81
76997,0.00018009004502251257,-0.0051925962981490825,-9.813290505252628,5.002501250625313e-06,1.0005002501250626e-05,-1.0005002501250626e-05,0,0,0,45.25
77007,0.00018009004502251257,0.0048074037018509125,-9.813290505252628,5.002501250625313e-06,1.0005002501250626e-05,-1.0005002501250626e-05,0,0,0,45.0
77017,0.00018009004502251257,0.0048074037018509125,-9.813290505252628,5.002501250625313e-06,1.0005002501250626e-05,-1.0005002501250626e-05,0,0,0,45.25
77027,0.010180090045022513,-0.0051925962981490825,-9.813290505252628,5.002501250625313e-06,1.0005002501250626e-05,-1.0005002501250626e-05,0,0,0,45.06
77037,0.00018009004502251257,-0.015192596298149078,-9.813290505252628,5.002501250625313e-06,1.0005002501250626e-05,-1.0005002501250626e-05,0,0,0,45.06
77047,0.00018009004502251257,-0.0051925962981490825,-9.813290505252628,5.002501250625313e-06,1.0005002501250626e-05,-1.0005002501250626e-05,0,0,0,45.12
77057,-0.009819909954977488,-0.0051925962981490825,-9.813290505252628,5.002501250625313e-06,1.0005002501250626e-05,-1.0005002501250626e-05,0,0,0,45.0
77067,-0.009819909954977488,0.0048074037018509125,-9.813290505252628,5.002501250625313e-06,1.0005002501250626e-05,-1.0005002501250626e-05,0,0,0,45.12
77077,-0.009819909954977488,0.0048074037018509125,-9.813290505252628,5.002501250625313e-06,1.0005002501250626e-05,-1.0005002501250626e-05,0,0,0,45.06
77087,-0.009819909954977488,-0.0051925962981490825,-9.813290505252628,5.002501250625313e-06,1.0005002501250626e-05,-1.0005002501250626e-05,0,0,0,45.0
77097,0.00018009004502251257,-0.0051925962981490825,-9.813290505252628,5.002501250625313e-06,1.0005002501250626e-05,-1.0005002501250626e-05,0,0,0,44.87
77107,0.00018009004502251257,-0.0051925962981490825,-9.813290505252628,5.002501250625313e-06,1.0005002501250626e-05,-1.0005002501250626e-05,0,0,0,45.25
77117,0.00018009004502251257,-0.0051925962981490825,-9.813290505252628,5.002501250625313e-06,1.0005002501250626e-05,-1.0005002501250626e-05,0,0,0,45.0
77127,0.00018009004502251257,-0.0051925962981490825,-9.813290505252628,5.002501250625313e-06,1.0005002501250626e-05,-1.0005002501250626e-05,0,0,0,45.25
77137,0.00018009004502251257,0.0048074037018509125,-9.823290505252627,5.002501250625313e-06,1.0005002501250626e-05,-1.0005002501250626e-05,0,0,0,45.31
77147,0.00018009004502251257,0.0048074037018509125,-9.813290505252628,5.002501250625313e-06,1.0005002501250626e-05,-1.0005002501250626e-05,0,0,0,44.93
77157,0.00018009004502251257,0.0048074037018509125,-9.813290505252628,5.002501250625313e-06,1.0005002501250626e-05,-1.0005002501250626e-05,0,0,0,45.31
77167,0.00018009004502251257,0.0048074037018509125,-9.813290505252628,5.002501250625313e-06,1.0005002501250626e-05,-1.0005002501250626e-05,0,0,0,45.06
77177,0.00018009004502251257,0.0048074037018509125,-9.813290505252628,5.002501250625313e-06,1.0005002501250626e-05,-1.0005002501250626e-05,0,0,0,45.12
77187,0.00018009004502251257,0.0048074037018509125,-9.813290505252628,5.002501250625313e-06,1.0005002501250626e-05,-1.0005002501250626e-05,0,0,0,45.0
77197,0.00018009004502251257,0.0048074037018509125,-9.803290505252628,5.002501250625313e-06,1.0005002501250626e-05,-1.0005002501250626e-05,0,0,0,45.12
77207,0.00018009004502251257,0.0048074037018509125,-9.803290505252628,5.002501250625313e-06,1.0005002501250626e-05,-1.0005002501250626e-05,0,0,0,45.31
77217,0.00018009004502251257,0.0048074037018509125,-9.813290505252628,5.002501250625313e-06,1.0005002501250626e-05,-1.0005002501250626e-05,0,0,0,45.12
77227,0.00018009004502251257,0.0048074037018509125,-9.813290505252628,5.002501250625313e-06,1.0005002501250626e-05,-1.0005002501250626e-05,0,0,0,45.06
77237,0.00018009004502251257,0.0048074037018509125,-9.803290505252628,5.002501250625313e-06,1.0005002501250626e-05,-1.0005002501250626e-05,0,0,0,45.0
77247,0.00018009004502251257,0.0048074037018509125,-9.803290505252628,5.002501250625313e-06,1.0005002501250626e-05,-1.0005002501250626e-05,0,0,0,45.5
77257,-0.009819909954977488,-0.0051925962981490825,-9.813290505252628,5.002501250625313e-06,1.0005002501250626e-05,-1.0005002501250626e-05,0,0,0,45.0
77267,0.00018009004502251257,0.0048074037018509125,-9.813290505252628,5.002501250625313e-06,1.0005002501250626e-05,-1.0005002501250626e-05,0,0,0,45.0
77277,0.010180090045022513,0.0048074037018509125,-9.813290505252628,5.002501250625313e-06,1.0005002501250626e-05,-1.0005002501250626e-05,0,0,0,45.12
77287,0.010180090045022513,0.0048074037018509125,-9.813290505252628,5.002501250625313e-06,1.0005002501250626e-05,-1.0005002501250626e-05,0,0,0,45.12
77297,0.00018009004502251257,0.0048074037018509125,-9.813290505252628,5.002501250625313e-06,1.0005002501250626e-05,-1.0005002501250626e-05,0,0,0,45.12
77307,0.00018009004502251257,0.0048074037018509125,-9.813290505252628,5.002501250625313e-06,1.0005002501250626e-05,-1.0005002501250626e-05,0,0,0,45.06
77317,-0.009819909954977488,0.0048074037018509125,-9.803290505252628,5.002501250625313e-06,1.0005002501250626e-05,-1.0005002501250626e-05,0,0,0,45.0
77327,0.00018009004502251257,0.0048074037018509125,-9.803290505252628,5.002501250625313e-06,1.0005002501250626e-05,-1.0005002501250626e-05,0,0,0,45.31
77337,0.010180090045022513,-0.0051925962981490825,-9.813290505252628,5.002501250625313e-06,1.0005002501250626e-05,-1.0005002501250626e-05,0,0,0,45.12
77347,0.010180090045022513,0.0048074037018509125,-9.813290505252628,5.002501250625313e-06,1.0005002501250626e-05,-1.0005002501250626e-05,0,0,0,45.12
77357,0.00018009004502251257,0.0048074037018509125,-9.813290505252628,5.002501250625313e-06,1.0005002501250626e-05,-1.0005002501250626e-05,0,0,0,45.0
77367,0.00018009004502251257,-0.0051925962981490825,-9.793290505252628,5.002501250625313e-06,1.0005002501250626e-05,-1.0005002501250626e-05,0,0,0,45.0
77377,0.00018009004502251257,-0.0051925962981490825,-9.803290505252628,5.002501250625313e-06,1.0005002501250626e-05,-1.0005002501250626e-05,0,0,0,45.06
77387,0.00018009004502251257,-0.0051925962981490825,-9.813290505252628,5.002501250625313e-06,1.0005002501250626e-05,-1.0005002501250626e-05,0,0,0,45.12
77397,0.00018009004502251257,-0.0051925962981490825,-9.813290505252628,5.002501250625313e-06,1.0005002501250626e-05,-1.0005002501250626e-05,0,0,0,44.93
77407,0.00018009004502251257,-0.0051925962981490825,-9.813290505252628,5.002501250625313e-06,1.0005002501250626e-05,-1.0005002501250626e-05,0,0,0,45.25
77417,0.00018009004502251257,-0.0051925962981490825,-9.813290505252628,5.002501250625313e-06,1.0005002501250626e-05,-1.0005002501250626e-05,0,0,0,45.25
77427,0.00018009004502251257,0.0048074037018509125,-9.813290505252628,5.002501250625313e-06,1.0005002501250626e-05,-1.0005002501250626e-05,0,0,0,45.25
77437,-0.009819909954977488,0.0048074037018509125,-9.813290505252628,5.002501250625313e-06,1.0005002501250626e-05,-1.0005002501250626e-05,0,0,0,45.0
77447,0.00018009004502251257,-0.0051925962981490825,-9.813290505252628,5.002501250625313e-06,1.0005002501250626e-05,-1.0005002501250626e-05,0,0,0,45.0
77457,0.00018009004502251257,0.0048074037018509125,-9.813290505252628,5.002501250625313e-06,1.0005002501250626e-05,-1.0005002501250626e-05,0,0,0,45.12
77467,0.010180090045022513,0.0048074037018509125,-9.813290505252628,5.002501250625313e-06,1.0005002501250626e-05,-1.0005002501250626e-05,0,0,0,45.0
77477,0.00018009004502251257,0.0048074037018509125,-9.813290505252628,5.002501250625313e-06,1.0005002501250626e-05,-1.0005002501250626e-05,0,0,0,45.31
77487,0.00018009004502251257,0.0048074037018509125,-9.823290505252627,5.002501250625313e-06,1.0005002501250626e-05,-1.0005002501250626e-05,0,0,0,45.12
77497,0.00018009004502251257,-0.0051925962981490825,-9.813290505252628,5.002501250625313e-06,1.0005002501250626e-05,-1.0005002501250626e-05,0,0,0,45.31
77507,-0.009819909954977488,0.0048074037018509125,-9.813290505252628,5.002501250625313e-06,1.0005002501250626e-05,-1.0005002501250626e-05,0,0,0,45.0
77517,-0.009819909954977488,-0.0051925962981490825,-9.813290505252628,5.002501250625313e-06,1.0005002501250626e-05,-1.0005002501250626e-05,0,0,0,45.0
77527,0.00018009004502251257,-0.0051925962981490825,-9.813290505252628,5.002501250625313e-06,1.0005002501250626e-05,-1.0005002501250626e-05,0,0,0,45.0
77537,0.00018009004502251257,-0.0051925962981490825,-9.813290505252628,5.002501250625313e-06,1.0005002501250626e-05,-1.0005002501250626e-05,0,0,0,45.31
77547,0.00018009004502251257,-0.015192596298149078,-9.813290505252628,5.002501250625313e-06,1.0005002501250626e-05,-1.0005002501250626e-05,0,0,0,45.12
77557,0.00018009004502251257,-0.0051925962981490825,-9.803290505252628,5.002501250625313e-06,1.0005002501250626e-05,-1.0005002501250626e-05,0,0,0,45.31
77567,0.010180090045022513,0.0048074037018509125,-9.813290505252628,5.002501250625313e-06,1.0005002501250626e-05,-1.0005002501250626e-05,0,0,0,45.06
77577,0.00018009004502251257,0.0048074037018509125,-9.813290505252628,5.002501250625313e-06,1.0005002501250626e-05,-1.0005002501250626e-05,0,0,0,45.0
77587,0.00018009004502251257,0.0048074037018509125,-9.813290505252628,5.002501250625313e-06,1.0005002501250626e-05,-1.0005002501250626e-05,0,0,0,45.0
77597,0.00018009004502251257,0.0048074037018509125,-9.813290505252628,5.002501250625313e-06,1.0005002501250626e-05,-1.0005002501250626e-05,0,0,0,45.0
77607,0.00018009004502251257,0.0048074037018509125,-9.813290505252628,5.002501250625313e-06,1.0005002501250626e-05,-1.0005002501250626e-05,0,0,0,45.25
77617,0.00018009004502251257,-0.0051925962981490825,-9.813290505252628,5.002501250625313e-06,1.0005002501250626e-05,-1.0005002501250626e-05,0,0,0,44.87
77627,0.00018009004502251257,-0.0051925962981490825,-9.823290505252627,5.002501250625313e-06,1.0005002501250626e-05,-1.0005002501250626e-05,0,0,0,45.12
77637,0.00018009004502251257,-0.0051925962981490825,-9.813290505252628,5.002501250625313e-06,1.0005002501250626e-05,-1.0005002501250626e-05,0,0,0,45.12
77647,0.00018009004502251257,-0.0051925962981490825,-9.813290505252628,5.002501250625313e-06,1.0005002501250626e-05,-1.0005002501250626e-05,0,0,0,45.25
77657,0.00018009004502251257,0.0048074037018509125,-9.813290505252628,5.002501250625313e-06,1.0005002501250626e-05,-1.0005002501250626e-05,0,0,0,45.25
77667,0.010180090045022513,0.0048074037018509125,-9.813290505252628,5.002501250625313e-06,1.0005002501250626e-05,-1.0005002501250626e-05,0,0,0,45.06
77677,0.00018009004502251257,-0.0051925962981490825,-9.813290505252628,5.002501250625313e-06,1.0005002501250626e-05,-1.0005002501250626e-05,0,0,0,45.31
77687,0.00018009004502251257,-0.0051925962981490825,-9.813290505252628,5.002501250625313e-06,1.0005002501250626e-05,-1.0005002501250626e-05,0,0,0,45.0
77697,0.00018009004502251257,-0.0051925962981490825,-9.813290505252628,5.002501250625313e-06,1.0005002501250626e-05,-1.0005002501250626e-05,0,0,0,45.25
77707,0.00018009004502251257,-0.0051925962981490825,-9.803290505252628,5.002501250625313e-06,1.0005002501250626e-05,-1.0005002501250626e-05,0,0,0,45.12
77717,0.00018009004502251257,-0.0051925962981490825,-9.803290505252628,5.002501250625313e-06,1.0005002501250626e-05,-1.0005002501250626e-05,0,0,0,45.25
77727,0.00018009004502251257,-0.0051925962981490825,-9.803290505252628,5.002501250625313e-06,1.0005002501250626e-05,-1.0005002501250626e-05,0,0,0,45.12
77737,0.00018009004502251257,-0.0051925962981490825,-9.813290505252628,5.002501250625313e-06,1.0005002501250626e-05,-1.0005002501250626e-05,0,0,0,45.12
77747,0.00018009004502251257,-0.0051925962981490825,-9.813290505252628,5.002501250625313e-06,1.0005002501250626e-05,-1.0005002501250626e-05,0,0,0,45.0
77757,0.00018009004502251257,0.0048074037018509125,-9.813290505252628,5.002501250625313e-06,1.0005002501250626e-05,-1.0005002501250626e-05,0,0,0,45.25
77767,0.00018009004502251257,0.0048074037018509125,-9.803290505252628,5.002501250625313e-06,1.0005002501250626e-05,-1.0005002501250626e-05,0,0,0,45.0
77777,0.00018009004502251257,0.0048074037018509125,-9.803290505252628,5.002501250625313e-06,1.0005002501250626e-05,-1.0005002501250626e-05,0,0,0,44.93
77787,0.00018009004502251257,-0.0051925962981490825,-9.803290505252628,5.002501250625313e-06,1.0005002501250626e-05,-1.0005002501250626e-05,0,0,0,45.06
77797,0.00018009004502251257,0.0048074037018509125,-9.813290505252628,5.002501250625313e-06,1.0005002501250626e-05,-1.0005002501250626e-05,0,0,0,45.0
77807,0.00018009004502251257,-0.0051925962981490825,-9.813290505252628,5.002501250625313e-06,1.0005002501250626e-05,-1.0005002501250626e-05,0,0,0,45.0
77817,0.00018009004502251257,-0.0051925962981490825,-9.813290505252628,5.002501250625313e-06,1.0005002501250626e-05,-1.0005002501250626e-05,0,0,0,45.12
77827,0.00018009004502251257,-0.0051925962981490825,-9.823290505252627,5.002501250625313e-06,1.0005002501250626e-05,-1.0005002501250626e-05,0,0,0,45.0
77837,0.00018009004502251257,-0.0051925962981490825,-9.823290505252627,5.002501250625313e-06,1.0005002501250626e-05,-1.0005002501250626e-05,0,0,0,45.0
77847,0.010180090045022513,-0.0051925962981490825,-9.823290505252627,5.002501250625313e-06,1.0005002501250626e-05,-1.0005002501250626e-05,0,0,0,45.31
77857,0.010180090045022513,0.0048074037018509125,-9.803290505252628,5.002501250625313e-06,1.0005002501250626e-05,-1.0005002501250626e-05,0,0,0,44.93
77867,0.00018009004502251257,0.0048074037018509125,-9.803290505252628,5.002501250625313e-06,1.0005002501250626e-05,-1.0005002501250626e-05,0,0,0,45.0
77877,-0.009819909954977488,-0.0051925962981490825,-9.803290505252628,5.002501250625313e-06,1.0005002501250626e-05,-1.0005002501250626e-05,0,0,0,45.12
77887,-0.009819909954977488,-0.0051925962981490825,-9.803290505252628,5.002501250625313e-06,1.0005002501250626e-05,-1.0005002501250626e-05,0,0,0,45.12
77897,0.00018009004502251257,-0.0051925962981490825,-9.813290505252628,5.002501250625313e-06,1.0005002501250626e-05,-1.0005002501250626e-05,0,0,0,45.06
77907,0.00018009004502251257,-0.0051925962981490825,-9.813290505252628,5.002501250625313e-06,1.0005002501250626e-05,-1.0005002501250626e-05,0,0,0,45.25
77917,0.00018009004502251257,-0.0051925962981490825,-9.813290505252628,5.002501250625313e-06,1.0005002501250626e-05,-1.0005002501250626e-05,0,0,0,45.0
77927,0.010180090045022513,-0.0051925962981490825,-9.813290505252628,5.002501250625313e-06,1.0005002501250626e-05,-1.0005002501250626e-05,0,0,0,44.81
77937,0.010180090045022513,-0.0051925962981490825,-9.813290505252628,5.002501250625313e-06,1.0005002501250626e-05,-1.0005002501250626e-05,0,0,0,45.0
77947,0.00018009004502251257,-0.0051925962981490825,-9.813290505252628,5.002501250625313e-06,1.0005002501250626e-05,-1.0005002501250626e-05,0,0,0,44.93
77957,0.00018009004502251257,0.0048074037018509125,-9.813290505252628,5.002501250625313e-06,1.0005002501250626e-05,-1.0005002501250626e-05,0,0,0,45.0
77967,0.00018009004502251257,0.0048074037018509125,-9.813290505252628,5.002501250625313e-06,1.0005002501250626e-05,-1.0005002501250626e-05,0,0,0,45.0
77977,0.00018009004502251257,-0.0051925962981490825,-9.813290505252628,5.002501250625313e-06,1.0005002501250626e-05,-1.0005002501250626e-05,0,0,0,45.12
77987,0.00018009004502251257,-0.015192596298149078,-9.813290505252628,5.002501250625313e-06,1.0005002501250626e-05,-1.0005002501250626e-05,0,0,0,45.12
77997,0.00018009004502251257,-0.0051925962981490825,-9.803290505252628,5.002501250625313e-06,1.0005002501250626e-05,-1.0005002501250626e-05,0,0,0,45.12
78007,0.00018009004502251257,0.0048074037018509125,-9.813290505252628,5.002501250625313e-06,1.0005002501250626e-05,-1.0005002501250626e-05,0,0,0,45.12
78017,0.00018009004502251257,0.0048074037018509125,-9.813290505252628,5.002501250625313e-06,1.0005002501250626e-05,-1.0005002501250626e-05,0,0,0,45.12
78027,0.00018009004502251257,-0.0051925962981490825,-9.813290505252628,5.002501250625313e-06,1.0005002501250626e-05,-1.0005002501250626e-05,0,0,0,45.0
78037,0.00018009004502251257,-0.0051925962981490825,-9.813290505252628,5.002501250625313e-06,1.0005002501250626e-05,-1.0005002501250626e-05,0,0,0,45.0
78047,0.00018009004502251257,-0.0051925962981490825,-9.803290505252628,5.002501250625313e-06,1.0005002501250626e-05,-1.0005002501250626e-05,0,0,0,45.25
78057,-0.009819909954977488,-0.0051925962981490825,-9.803290505252628,5.002501250625313e-06,1.0005002501250626e-05,-1.0005002501250626e-05,0,0,0,45.25
78067,0.00018009004502251257,0.0048074037018509125,-9.803290505252628,5.002501250625313e-06,1.0005002501250626e-05,-1.0005002501250626e-05,0,0,0,45.06
78077,0.00018009004502251257,0.0048074037018509125,-9.813290505252628,5.002501250625313e-06,1.0005002501250626e-05,-1.0005002501250626e-05,0,0,0,45.25
78087,0.010180090045022513,-0.0051925962981490825,-9.813290505252628,5.002501250625313e-06,1.0005002501250626e-05,-1.0005002501250626e-05,0,0,0,45.06
78097,0.00018009004502251257,-0.0051925962981490825,-9.813290505252628,5.002501250625313e-06,1.0005002501250626e-05,-1.0005002501250626e-05,0,0,0,45.12
78107,0.00018009004502251257,-0.0051925962981490825,-9.813290505252628,5.002501250625313e-06,1.0005002501250626e-05,-1.0005002501250626e-05,0,0,0,45.31
78117,0.00018009004502251257,0.0048074037018509125,-9.803290505252628,5.002501250625313e-06,1.0005002501250626e-05,-1.0005002501250626e-05,0,0,0,44.93
78127,0.00018009004502251257,0.0048074037018509125,-9.813290505252628,5.002501250625313e-06,1.0005002501250626e-05,-1.0005002501250626e-05,0,0,0,45.0
78137,-0.009819909954977488,0.0048074037018509125,-9.813290505252628,5.002501250625313e-06,1.0005002501250626e-05,-1.0005002501250626e-05,0,0,0,45.06
78147,-0.009819909954977488,-0.0051925962981490825,-9.803290505252628,5.002501250625313e-06,1.0005002501250626e-05,-1.0005002501250626e-05,0,0,0,45.12
78157,-0.009819909954977488,0.0048074037018509125,-9.813290505252628,5.002501250625313e-06,1.0005002501250626e-05,-1.0005002501250626e-05,0,0,0,44.87
78167,0.00018009004502251257,-0.0051925962981490825,-9.813290505252628,5.002501250625313e-06,1.0005002501250626e-05,-1.0005002501250626e-05,0,0,0,44.87
78177,0.00018009004502251257,-0.0051925962981490825,-9.813290505252628,5.002501250625313e-06,1.0005002501250626e-05,-1.0005002501250626e-05,0,0,0,44.93
78187,0.010180090045022513,-0.0051925962981490825,-9.813290505252628,5.002501250625313e-06,1.0005002501250626e-05,-1.0005002501250626e-05,0,0,0,45.12
78197,0.010180090045022513,-0.0051925962981490825,-9.803290505252628,5.002501250625313e-06,1.0005002501250626e-05,-1.0005002501250626e-05,0,0,0,44.87
78207,0.00018009004502251257,-0.0051925962981490825,-9.803290505252628,5.002501250625313e-06,1.0005002501250626e-05,-1.0005002501250626e-05,0,0,0,45.25
78217,0.00018009004502251257,0.0048074037018509125,-9.813290505252628,5.002501250625313e-06,1.0005002501250626e-05,-1.0005002501250626e-05,0,0,0,45.12
78227,0.010180090045022513,0.0048074037018509125,-9.813290505252628,5.002501250625313e-06,1.0005002501250626e-05,-1.0005002501250626e-05,0,0,0,45.0
78237,0.00018009004502251257,-0.0051925962981490825,-9.813290505252628,5.002501250625313e-06,1.0005002501250626e-05,-1.0005002501250626e-05,0,0,0,44.93
78247,0.00018009004502251257,-0.0051925962981490825,-9.813290505252628,5.002501250625313e-06,1.0005002501250626e-05,-1.0005002501250626e-05,0,0,0,45.0
78257,0.00018009004502251257,0.0048074037018509125,-9.803290505252628,5.002501250625313e-06,1.0005002501250626e-05,-1.0005002501250626e-05,0,0,0,44.87
78267,0.00018009004502251257,0.0048074037018509125,-9.803290505252628,5.002501250625313e-06,1.0005002501250626e-05,-1.0005002501250626e-05,0,0,0,45.0
78277,0.00018009004502251257,0.0048074037018509125,-9.813290505252628,5.002501250625313e-06,1.0005002501250626e-05,-1.0005002501250626e-05,0,0,0,45.0
78287,0.00018009004502251257,0.0048074037018509125,-9.813290505252628,5.002501250625313e-06,1.0005002501250626e-05,-1.0005002501250626e-05,0,0,0,45.0
78297,0.00018009004502251257,-0.0051925962981490825,-9.813290505252628,5.002501250625313e-06,1.0005002501250626e-05,-1.0005002501250626e-05,0,0,0,45.25
78307,0.00018009004502251257,-0.0051925962981490825,-9.813290505252628,5.002501250625313e-06,1.0005002501250626e-05,-1.0005002501250626e-05,0,0,0,45.12
78317,0.00018009004502251257,0.0048074037018509125,-9.813290505252628,5.002501250625313e-06,1.0005002501250626e-05,-1.0005002501250626e-05,0,0,0,45.31
78327,-0.009819909954977488,0.0048074037018509125,-9.803290505252628,5.002501250625313e-06,1.0005002501250626e-05,-1.0005002501250626e-05,0,0,0,45.25
78337,0.00018009004502251257,0.0048074037018509125,-9.813290505252628,5.002501250625313e-06,1.0005002501250626e-05,-1.0005002501250626e-05,0,0,0,44.93
78347,0.00018009004502251257,0.0048074037018509125,-9.813290505252628,5.002501250625313e-06,1.0005002501250626e-05,-1.0005002501250626e-05,0,0,0,45.12
78357,0.00018009004502251257,0.0048074037018509125,-9.813290505252628,5.002501250625313e-06,1.0005002501250626e-05,-1.0005002501250626e-05,0,0,0,45.0
78367,0.00018009004502251257,0.0048074037018509125,-9.813290505252628,5.002501250625313e-06,1.0005002501250626e-05,-1.0005002501250626e-05,0,0,0,45.12
78377,0.00018009004502251257,0.0048074037018509125,-9.813290505252628,5.002501250625313e-06,1.0005002501250626e-05,-1.0005002501250626e-05,0,0,0,45.0
78387,0.00018009004502251257,0.0048074037018509125,-9.813290505252628,5.002501250625313e-06,1.0005002501250626e-05,-1.0005002501250626e-05,0,0,0,45.0
78397,-0.009819909954977488,-0.0051925962981490825,-9.823290505252627,5.002501250625313e-06,1.0005002501250626e-05,-1.0005002501250626e-05,0,0,0,45.0
78407,0.00018009004502251257,-0.0051925962981490825,-9.813290505252628,5.002501250625313e-06,1.0005002501250626e-05,-1.0005002501250626e-05,0,0,0,45.25
78417,0.010180090045022513,0.0048074037018509125,-9.803290505252628,5.002501250625313e-06,1.0005002501250626e-05,-1.0005002501250626e-05,0,0,0,44.75
78427,0.00018009004502251257,0.0048074037018509125,-9.813290505252628,5.002501250625313e-06,1.0005002501250626e-05,-1.0005002501250626e-05,0,0,0,44.93
78437,-0.009819909954977488,0.0048074037018509125,-9.813290505252628,5.002501250625313e-06,1.0005002501250626e-05,-1.0005002501250626e-05,0,0,0,45.0
78447,0.00018009004502251257,-0.0051925962981490825,-9.813290505252628,5.002501250625313e-06,1.0005002501250626e-05,-1.0005002501250626e-05,0,0,0,45.12
78457,0.00018009004502251257,0.0048074037018509125,-9.813290505252628,5.002501250625313e-06,1.0005002501250626e-05,-1.0005002501250626e-05,0,0,0,45.0
78467,0.00018009004502251257,0.0048074037018509125,-9.813290505252628,5.002501250625313e-06,1.0005002501250626e-05,-1.0005002501250626e-05,0,0,0,45.0
78477,0.00018009004502251257,0.0048074037018509125,-9.813290505252628,5.002501250625313e-06,1.0005002501250626e-05,-1.0005002501250626e-05,0,0,0,45.0
78487,-0.009819909954977488,-0.0051925962981490825,-9.813290505252628,5.002501250625313e-06,1.0005002501250626e-05,-1.0005002501250626e-05,0,0,0,45.25
78497,-0.009819909954977488,-0.0051925962981490825,-9.813290505252628,5.002501250625313e-06,1.0005002501250626e-05,-1.0005002501250626e-05,0,0,0,45.06
78507,0.00018009004502251257,0.0048074037018509125,-9.813290505252628,5.002501250625313e-06,1.0005002501250626e-05,-1.0005002501250626e-05,0,0,0,45.12
78517,0.010180090045022513,0.0048074037018509125,-9.813290505252628,5.002501250625313e-06,1.0005002501250626e-05,-1.0005002501250626e-05,0,0,0,45.12
78527,0.00018009004502251257,0.014807403701850921,-9.813290505252628,5.002501250625313e-06,1.0005002501250626e-05,-1.0005002501250626e-05,0,0,0,45.0
78537,0.00018009004502251257,0.0048074037018509125,-9.813290505252628,5.002501250625313e-06,1.0005002501250626e-05,-1.0005002501250626e-05,0,0,0,45.25
78547,0.00018009004502251257,0.0048074037018509125,-9.813290505252628,5.002501250625313e-06,1.0005002501250626e-05,-1.0005002501250626e-05,0,0,0,45.12
78557,0.010180090045022513,0.0048074037018509125,-9.813290505252628,5.002501250625313e-06,1.0005002501250626e-05,-1.0005002501250626e-05,0,0,0,45.0
78567,0.010180090045022513,0.0048074037018509125,-9.813290505252628,5.002501250625313e-06,1.0005002501250626e-05,-1.0005002501250626e-05,0,0,0,45.12
78577,0.00018009004502251257,0.0048074037018509125,-9.823290505252627,5.002501250625313e-06,1.0005002501250626e-05,-1.0005002501250626e-05,0,0,0,45.12
78587,-0.009819909954977488,0.0048074037018509125,-9.813290505252628,5.002501250625313e-06,1.0005002501250626e-05,-1.0005002501250626e-05,0,0,0,45.0
78597,0.00018009004502251257,0.0048074037018509125,-9.823290505252627,5.002501250625313e-06,1.0005002501250626e-05,-1.0005002501250626e-05,0,0,0,45.0
78607,0.00018009004502251257,-0.0051925962981490825,-9.813290505252628,5.002501250625313e-06,1.0005002501250626e-05,-1.0005002501250626e-05,0,0,0,45.0
78617,0.00018009004502251257,-0.0051925962981490825,-9.803290505252628,5.002501250625313e-06,1.0005002501250626e-05,-1.0005002501250626e-05,0,0,0,45.0
78627,0.00018009004502251257,-0.0051925962981490825,-9.793290505252628,5.002501250625313e-06,1.0005002501250626e-05,-1.0005002501250626e-05,0,0,0,45.12
78637,0.00018009004502251257,-0.0051925962981490825,-9.803290505252628,5.002501250625313e-06,1.0005002501250626e-05,-1.0005002501250626e-05,0,0,0,45.25
78647,0.010180090045022513,-0.0051925962981490825,-9.813290505252628,5.002501250625313e-06,1.0005002501250626e-05,-1.0005002501250626e-05,0,0,0,44.93
78657,0.010180090045022513,-0.0051925962981490825,-9.823290505252627,5.002501250625313e-06,1.0005002501250626e-05,-1.0005002501250626e-05,0,0,0,45.06
78667,0.00018009004502251257,0.0048074037018509125,-9.823290505252627,5.002501250625313e-06,1.0005002501250626e-05,-1.0005002501250626e-05,0,0,0,45.06
78677,0.00018009004502251257,0.014807403701850921,-9.823290505252627,5.002501250625313e-06,1.0005002501250626e-05,-1.0005002501250626e-05,0,0,0,45.0
78687,0.010180090045022513,0.0048074037018509125,-9.823290505252627,5.002501250625313e-06,1.0005002501250626e-05,-1.0005002501250626e-05,0,0,0,45.12
78697,0.00018009004502251257,0.0048074037018509125,-9.823290505252627,5.002501250625313e-06,1.0005002501250626e-05,-1.0005002501250626e-05,0,0,0,44.93
78707,-0.009819909954977488,-0.0051925962981490825,-9.813290505252628,5.002501250625313e-06,1.0005002501250626e-05,-1.0005002501250626e-05,0,0,0,45.12
78717,-0.009819909954977488,0.0048074037018509125,-9.803290505252628,5.002501250625313e-06,1.0005002501250626e-05,-1.0005002501250626e-05,0,0,0,45.06
78727,0.00018009004502251257,0.0048074037018509125,-9.793290505252628,5.002501250625313e-06,1.0005002501250626e-05,-1.0005002501250626e-05,0,0,0,45.12
78737,0.00018009004502251257,0.0048074037018509125,-9.803290505252628,5.002501250625313e-06,1.0005002501250626e-05,-1.0005002501250626e-05,0,0,0,45.06
78747,0.00018009004502251257,-0.0051925962981490825,-9.803290505252628,5.002501250625313e-06,1.0005002501250626e-05,-1.0005002501250626e-05,0,0,0,45.0
78757,0.00018009004502251257,-0.0051925962981490825,-9.813290505252628,5.002501250625313e-06,1.0005002501250626e-05,-1.0005002501250626e-05,0,0,0,45.12
78767,-0.009819909954977488,0.0048074037018509125,-9.813290505252628,5.002501250625313e-06,1.0005002501250626e-05,-1.0005002501250626e-05,0,0,0,44.93
78777,0.00018009004502251257,-0.0051925962981490825,-9.813290505252628,5.002501250625313e-06,1.0005002501250626e-05,-1.0005002501250626e-05,0,0,0,45.0
78787,0.00018009004502251257,-0.0051925962981490825,-9.813290505252628,5.002501250625313e-06,1.0005002501250626e-05,-1.0005002501250626e-05,0,0,0,44.81
78797,0.00018009004502251257,-0.0051925962981490825,-9.813290505252628,5.002501250625313e-06,1.0005002501250626e-05,-1.0005002501250626e-05,0,0,0,45.0
78807,0.00018009004502251257,-0.0051925962981490825,-9.813290505252628,5.002501250625313e-06,1.0005002501250626e-05,-1.0005002501250626e-05,0,0,0,45.0
78817,0.00018009004502251257,0.0048074037018509125,-9.813290505252628,5.002501250625313e-06,1.0005002501250626e-05,-1.0005002501250626e-05,0,0,0,45.12
78827,-0.009819909954977488,-0.0051925962981490825,-9.823290505252627,5.002501250625313e-06,1.0005002501250626e-05,-1.0005002501250626e-05,0,0,0,44.87
78837,0.00018009004502251257,-0.0051925962981490825,-9.813290505252628,5.002501250625313e-06,1.0005002501250626e-05,-1.0005002501250626e-05,0,0,0,45.06
78847,0.00018009004502251257,-0.0051925962981490825,-9.803290505252628,5.002501250625313e-06,1.0005002501250626e-05,-1.0005002501250626e-05,0,0,0,45.0
78857,0.00018009004502251257,-0.0051925962981490825,-9.803290505252628,5.002501250625313e-06,1.0005002501250626e-05,-1.0005002501250626e-05,0,0,0,45.06
78867,0.00018009004502251257,-0.0051925962981490825,-9.813290505252628,5.002501250625313e-06,1.0005002501250626e-05,-1.0005002501250626e-05,0,0,0,45.12
78877,0.00018009004502251257,-0.0051925962981490825,-9.813290505252628,5.002501250625313e-06,1.0005002501250626e-05,-1.0005002501250626e-05,0,0,0,45.0
78887,0.00018009004502251257,-0.0051925962981490825,-9.813290505252628,5.002501250625313e-06,1.0005002501250626e-05,-1.0005002501250626e-05,0,0,0,45.0
78897,0.00018009004502251257,-0.0051925962981490825,-9.813290505252628,5.002501250625313e-06,1.0005002501250626e-05,-1.0005002501250626e-05,0,0,0,45.12
78907,0.00018009004502251257,-0.0051925962981490825,-9.813290505252628,5.002501250625313e-06,1.0005002501250626e-05,-1.0005002501250626e-05,0,0,0,45.12
78917,0.00018009004502251257,-0.0051925962981490825,-9.813290505252628,5.002501250625313e-06,1.0005002501250626e-05,-1.0005002501250626e-05,0,0,0,44.93
78927,0.00018009004502251257,0.0048074037018509125,-9.813290505252628,5.002501250625313e-06,1.0005002501250626e-05,-1.0005002501250626e-05,0,0,0,45.12
78937,0.00018009004502251257,0.0048074037018509125,-9.813290505252628,5.002501250625313e-06,1.0005002501250626e-05,-1.0005002501250626e-05,0,0,0,45.0
78947,-0.009819909954977488,0.0048074037018509125,-9.813290505252628,5.002501250625313e-06,1.0005002501250626e-05,-1.0005002501250626e-05,0,0,0,45.31
78957,0.00018009004502251257,0.0048074037018509125,-9.813290505252628,5.002501250625313e-06,1.0005002501250626e-05,-1.0005002501250626e-05,0,0,0,45.0
78967,0.00018009004502251257,0.0048074037018509125,-9.813290505252628,5.002501250625313e-06,1.0005002501250626e-05,-1.0005002501250626e-05,0,0,0,45.12
78977,0.00018009004502251257,0.0048074037018509125,-9.803290505252628,5.002501250625313e-06,1.0005002501250626e-05,-1.0005002501250626e-05,0,0,0,45.12
78987,0.00018009004502251257,0.0048074037018509125,-9.803290505252628,5.002501250625313e-06,1.0005002501250626e-05,-1.0005002501250626e-05,0,0,0,45.0
78997,0.00018009004502251257,0.0048074037018509125,-9.803290505252628,5.002501250625313e-06,1.0005002501250626e-05,-1.0005002501250626e-05,0,0,0,44.87
79007,0.010180090045022513,0.0048074037018509125,-9.813290505252628,5.002501250625313e-06,1.0005002501250626e-05,-1.0005002501250626e-05,0,0,0,45.31
79017,0.00018009004502251257,0.0048074037018509125,-9.813290505252628,5.002501250625313e-06,1.0005002501250626e-05,-1.0005002501250626e-05,0,0,0,45.12
79027,0.00018009004502251257,-0.0051925962981490825,-9.813290505252628,5.002501250625313e-06,1.0005002501250626e-05,-1.0005002501250626e-05,0,0,0,44.93
79037,0.00018009004502251257,-0.0051925962981490825,-9.813290505252628,5.002501250625313e-06,1.0005002501250626e-05,-1.0005002501250626e-05,0,0,0,45.0
79047,0.00018009004502251257,-0.0051925962981490825,-9.813290505252628,5.002501250625313e-06,1.0005002501250626e-05,-1.0005002501250626e-05,0,0,0,45.12
79057,0.00018009004502251257,-0.0051925962981490825,-9.823290505252627,5.002501250625313e-06,1.0005002501250626e-05,-1.0005002501250626e-05,0,0,0,45.31
79067,0.00018009004502251257,-0.0051925962981490825,-9.813290505252628,5.002501250625313e-06,1.0005002501250626e-05,-1.0005002501250626e-05,0,0,0,45.0
79077,0.00018009004502251257,0.0048074037018509125,-9.813290505252628,5.002501250625313e-06,1.0005002501250626e-05,-1.0005002501250626e-05,0,0,0,45.0
79087,0.00018009004502251257,-0.0051925962981490825,-9.813290505252628,5.002501250625313e-06,1.0005002501250626e-05,-1.0005002501250626e-05,0,0,0,45.25
79097,0.00018009004502251257,-0.0051925962981490825,-9.813290505252628,5.002501250625313e-06,1.0005002501250626e-05,-1.0005002501250626e-05,0,0,0,45.0
79107,0.010180090045022513,-0.0051925962981490825,-9.813290505252628,5.002501250625313e-06,1.0005002501250626e-05,-1.0005002501250626e-05,0,0,0,45.12
79117,0.010180090045022513,-0.0051925962981490825,-9.813290505252628,5.002501250625313e-06,1.0005002501250626e-05,-1.0005002501250626e-05,0,0,0,45.0
79127,0.00018009004502251257,-0.0051925962981490825,-9.813290505252628,5.002501250625313e-06,1.0005002501250626e-05,-1.0005002501250626e-05,0,0,0,45.0
79137,0.00018009004502251257,-0.0051925962981490825,-9.823290505252627,5.002501250625313e-06,1.0005002501250626e-05,-1.0005002501250626e-05,0,0,0,44.93
79147,0.00018009004502251257,-0.0051925962981490825,-9.823290505252627,5.002501250625313e-06,1.0005002501250626e-05,-1.0005002501250626e-05,0,0,0,45.06
79157,0.00018009004502251257,0.0048074037018509125,-9.813290505252628,5.002501250625313e-06,1.0005002501250626e-05,-1.0005002501250626e-05,0,0,0,45.06
79167,0.00018009004502251257,0.0048074037018509125,-9.803290505252628,5.002501250625313e-06,1.0005002501250626e-05,-1.0005002501250626e-05,0,0,0,44.93
79177,0.00018009004502251257,0.0048074037018509125,-9.813290505252628,5.002501250625313e-06,1.0005002501250626e-05,-1.0005002501250626e-05,0,0,0,45.0
79187,0.00018009004502251257,0.0048074037018509125,-9.803290505252628,5.002501250625313e-06,1.0005002501250626e-05,-1.0005002501250626e-05,0,0,0,45.06
79197,0.00018009004502251257,0.0048074037018509125,-9.813290505252628,5.002501250625313e-06,1.0005002501250626e-05,-1.0005002501250626e-05,0,0,0,45.25
79207,0.00018009004502251257,0.0048074037018509125,-9.813290505252628,5.002501250625313e-06,1.0005002501250626e-05,-1.0005002501250626e-05,0,0,0,45.37
79217,0.00018009004502251257,0.0048074037018509125,-9.813290505252628,5.002501250625313e-06,1.0005002501250626e-05,-1.0005002501250626e-05,0,0,0,45.12
79227,0.00018009004502251257,0.0048074037018509125,-9.823290505252627,5.002501250625313e-06,1.0005002501250626e-05,-1.0005002501250626e-05,0,0,0,45.0
79237,0.010180090045022513,-0.0051925962981490825,-9.813290505252628,5.002501250625313e-06,1.0005002501250626e-05,-1.0005002501250626e-05,0,0,0,45.25
79247,0.010180090045022513,-0.0051925962981490825,-9.803290505252628,5.002501250625313e-06,1.0005002501250626e-05,-1.0005002501250626e-05,0,0,0,45.12
79257,0.010180090045022513,-0.0051925962981490825,-9.813290505252628,5.002501250625313e-06,1.0005002501250626e-05,-1.0005002501250626e-05,0,0,0,45.12
79267,0.00018009004502251257,-0.0051925962981490825,-9.813290505252628,5.002501250625313e-06,1.0005002501250626e-05,-1.0005002501250626e-05,0,0,0,45.0
79277,0.010180090045022513,0.0048074037018509125,-9.813290505252628,5.002501250625313e-06,1.0005002501250626e-05,-1.0005002501250626e-05,0,0,0,45.0
79287,0.00018009004502251257,0.0048074037018509125,-9.813290505252628,5.002501250625313e-06,1.0005002501250626e-05,-1.0005002501250626e-05,0,0,0,44.87
79297,0.00018009004502251257,0.0048074037018509125,-9.813290505252628,5.002501250625313e-06,1.0005002501250626e-05,-1.0005002501250626e-05,0,0,0,45.06
79307,0.00018009004502251257,0.0048074037018509125,-9.823290505252627,5.002501250625313e-06,1.0005002501250626e-05,-1.0005002501250626e-05,0,0,0,45.31
79317,-0.009819909954977488,0.0048074037018509125,-9.823290505252627,5.002501250625313e-06,1.0005002501250626e-05,-1.0005002501250626e-05,0,0,0,44.87
79327,-0.009819909954977488,0.0048074037018509125,-9.813290505252628,5.002501250625313e-06,1.0005002501250626e-05,-1.0005002501250626e-05,0,0,0,45.25
79337,-0.009819909954977488,-0.0051925962981490825,-9.813290505252628,5.002501250625313e-06,1.0005002501250626e-05,-1.0005002501250626e-05,0,0,0,45.0
79347,0.00018009004502251257,-0.0051925962981490825,-9.803290505252628,5.002501250625313e-06,1.0005002501250626e-05,-1.0005002501250626e-05,0,0,0,45.25
79357,-0.009819909954977488,-0.0051925962981490825,-9.803290505252628,5.002501250625313e-06,1.0005002501250626e-05,-1.0005002501250626e-05,0,0,0,45.25
79367,-0.009819909954977488,0.0048074037018509125,-9.803290505252628,5.002501250625313e-06,1.0005002501250626e-05,-1.0005002501250626e-05,0,0,0,45.0
79377,0.00018009004502251257,0.0048074037018509125,-9.813290505252628,5.002501250625313e-06,1.0005002501250626e-05,-1.0005002501250626e-05,0,0,0,45.0
79387,0.00018009004502251257,0.0048074037018509125,-9.803290505252628,5.002501250625313e-06,1.0005002501250626e-05,-1.0005002501250626e-05,0,0,0,45.06
79397,-0.009819909954977488,0.0048074037018509125,-9.803290505252628,5.002501250625313e-06,1.0005002501250626e-05,-1.0005002501250626e-05,0,0,0,45.0
79407,0.00018009004502251257,-0.0051925962981490825,-9.803290505252628,5.002501250625313e-06,1.0005002501250626e-05,-1.0005002501250626e-05,0,0,0,45.0
79417,0.00018009004502251257,0.0048074037018509125,-9.813290505252628,5.002501250625313e-06,1.0005002501250626e-05,-1.0005002501250626e-05,0,0,0,45.0
79427,0.00018009004502251257,0.0048074037018509125,-9.823290505252627,5.002501250625313e-06,1.0005002501250626e-05,-1.0005002501250626e-05,0,0,0,45.12
79437,0.00018009004502251257,0.0048074037018509125,-9.813290505252628,5.002501250625313e-06,1.0005002501250626e-05,-1.0005002501250626e-05,0,0,0,45.0
79447,0.00018009004502251257,0.0048074037018509125,-9.803290505252628,5.002501250625313e-06,1.0005002501250626e-05,-1.0005002501250626e-05,0,0,0,44.93
79457,0.00018009004502251257,0.0048074037018509125,-9.813290505252628,5.002501250625313e-06,1.0005002501250626e-05,-1.0005002501250626e-05,0,0,0,45.12
79467,0.00018009004502251257,-0.0051925962981490825,-9.803290505252628,5.002501250625313e-06,1.0005002501250626e-05,-1.0005002501250626e-05,0,0,0,45.0
79477,-0.009819909954977488,0.0048074037018509125,-9.803290505252628,5.002501250625313e-06,1.0005002501250626e-05,-1.0005002501250626e-05,0,0,0,45.0
79487,0.00018009004502251257,0.0048074037018509125,-9.803290505252628,5.002501250625313e-06,1.0005002501250626e-05,-1.0005002501250626e-05,0,0,0,45.12
79497,-0.009819909954977488,0.0048074037018509125,-9.813290505252628,5.002501250625313e-06,1.0005002501250626e-05,-1.0005002501250626e-05,0,0,0,44.93
79507,0.00018009004502251257,0.0048074037018509125,-9.803290505252628,5.002501250625313e-06,1.0005002501250626e-05,-1.0005002501250626e-05,0,0,0,45.12
79517,0.010180090045022513,0.0048074037018509125,-9.803290505252628,5.002501250625313e-06,1.0005002501250626e-05,-1.0005002501250626e-05,0,0,0,44.93
79527,0.00018009004502251257,-0.0051925962981490825,-9.803290505252628,5.002501250625313e-06,1.0005002501250626e-05,-1.0005002501250626e-05,0,0,0,45.06
79537,-0.009819909954977488,-0.0051925962981490825,-9.813290505252628,5.002501250625313e-06,1.0005002501250626e-05,-1.0005002501250626e-05,0,0,0,45.25
79547,-0.009819909954977488,-0.0051925962981490825,-9.813290505252628,5.002501250625313e-06,1.0005002501250626e-05,-1.0005002501250626e-05,0,0,0,45.0
79557,-0.009819909954977488,0.0048074037018509125,-9.813290505252628,5.002501250625313e-06,1.0005002501250626e-05,-1.0005002501250626e-05,0,0,0,45.12
79567,-0.009819909954977488,0.0048074037018509125,-9.813290505252628,5.002501250625313e-06,1.0005002501250626e-05,-1.0005002501250626e-05,0,0,0,45.0
79577,-0.009819909954977488,0.0048074037018509125,-9.813290505252628,5.002501250625313e-06,1.0005002501250626e-05,-1.0005002501250626e-05,0,0,0,44.87
79587,0.00018009004502251257,0.0048074037018509125,-9.813290505252628,5.002501250625313e-06,1.0005002501250626e-05,-1.0005002501250626e-05,0,0,0,45.12
79597,0.010180090045022513,0.0048074037018509125,-9.813290505252628,5.002501250625313e-06,1.0005002501250626e-05,-1.0005002501250626e-05,0,0,0,45.0
79607,0.010180090045022513,0.0048074037018509125,-9.813290505252628,5.002501250625313e-06,1.0005002501250626e-05,-1.0005002501250626e-05,0,0,0,44.93
79617,0.00018009004502251257,0.0048074037018509125,-9.813290505252628,5.002501250625313e-06,1.0005002501250626e-05,-1.0005002501250626e-05,0,0,0,45.0
79627,0.00018009004502251257,0.0048074037018509125,-9.813290505252628,5.002501250625313e-06,1.0005002501250626e-05,-1.0005002501250626e-05,0,0,0,44.75
79637,-0.009819909954977488,-0.0051925962981490825,-9.803290505252628,5.002501250625313e-06,1.0005002501250626e-05,-1.0005002501250626e-05,0,0,0,45.0
79647,0.00018009004502251257,-0.0051925962981490825,-9.813290505252628,5.002501250625313e-06,1.0005002501250626e-05,-1.0005002501250626e-05,0,0,0,45.0
79657,0.00018009004502251257,0.0048074037018509125,-9.823290505252627,5.002501250625313e-06,1.0005002501250626e-05,-1.0005002501250626e-05,0,0,0,45.25
79667,0.00018009004502251257,0.0048074037018509125,-9.813290505252628,5.002501250625313e-06,1.0005002501250626e-05,-1.0005002501250626e-05,0,0,0,45.12
79677,0.00018009004502251257,0.0048074037018509125,-9.813290505252628,5.002501250625313e-06,1.0005002501250626e-05,-1.0005002501250626e-05,0,0,0,45.0
79687,0.00018009004502251257,0.0048074037018509125,-9.813290505252628,5.002501250625313e-06,1.0005002501250626e-05,-1.0005002501250626e-05,0,0,0,45.25
79697,0.00018009004502251257,-0.0051925962981490825,-9.813290505252628,5.002501250625313e-06,1.0005002501250626e-05,-1.0005002501250626e-05,0,0,0,45.12
79707,0.010180090045022513,-0.0051925962981490825,-9.813290505252628,5.002501250625313e-06,1.0005002501250626e-05,-1.0005002501250626e-05,0,0,0,45.12
79717,0.00018009004502251257,0.0048074037018509125,-9.813290505252628,5.002501250625313e-06,1.0005002501250626e-05,-1.0005002501250626e-05,0,0,0,45.12
79727,0.00018009004502251257,0.0048074037018509125,-9.813290505252628,5.002501250625313e-06,1.0005002501250626e-05,-1.0005002501250626e-05,0,0,0,45.31
79737,-0.009819909954977488,0.0048074037018509125,-9.813290505252628,5.002501250625313e-06,1.0005002501250626e-05,-1.0005002501250626e-05,0,0,0,45.12
79747,0.010180090045022513,0.0048074037018509125,-9.813290505252628,5.002501250625313e-06,1.0005002501250626e-05,-1.0005002501250626e-05,0,0,0,45.0
79757,0.010180090045022513,-0.0051925962981490825,-9.823290505252627,5.002501250625313e-06,1.0005002501250626e-05,-1.0005002501250626e-05,0,0,0,45.0
79767,0.00018009004502251257,-0.0051925962981490825,-9.813290505252628,5.002501250625313e-06,1.0005002501250626e-05,-1.0005002501250626e-05,0,0,0,45.31
79777,0.00018009004502251257,-0.0051925962981490825,-9.803290505252628,5.002501250625313e-06,1.0005002501250626e-05,-1.0005002501250626e-05,0,0,0,45.06
79787,0.00018009004502251257,-0.0051925962981490825,-9.813290505252628,5.002501250625313e-06,1.0005002501250626e-05,-1.0005002501250626e-05,0,0,0,45.25
79797,-0.009819909954977488,-0.0051925962981490825,-9.813290505252628,5.002501250625313e-06,1.0005002501250626e-05,-1.0005002501250626e-05,0,0,0,45.0
79807,0.00018009004502251257,0.0048074037018509125,-9.813290505252628,5.002501250625313e-06,1.0005002501250626e-05,-1.0005002501250626e-05,0,0,0,45.12
79817,0.010180090045022513,0.0048074037018509125,-9.813290505252628,5.002501250625313e-06,1.0005002501250626e-05,-1.0005002501250626e-05,0,0,0,45.25
79827,0.010180090045022513,-0.0051925962981490825,-9.823290505252627,5.002501250625313e-06,1.0005002501250626e-05,-1.0005002501250626e-05,0,0,0,45.06
79837,0.00018009004502251257,-0.0051925962981490825,-9.823290505252627,5.002501250625313e-06,1.0005002501250626e-05,-1.0005002501250626e-05,0,0,0,45.12
79847,-0.009819909954977488,0.0048074037018509125,-9.823290505252627,5.002501250625313e-06,1.0005002501250626e-05,-1.0005002501250626e-05,0,0,0,45.12
79857,0.00018009004502251257,0.0048074037018509125,-9.813290505252628,5.002501250625313e-06,1.0005002501250626e-05,-1.0005002501250626e-05,0,0,0,45.0
79867,0.00018009004502251257,0.0048074037018509125,-9.813290505252628,5.002501250625313e-06,1.0005002501250626e-05,-1.0005002501250626e-05,0,0,0,45.0
79877,0.00018009004502251257,-0.0051925962981490825,-9.813290505252628,5.002501250625313e-06,1.0005002501250626e-05,-1.0005002501250626e-05,0,0,0,45.25
79887,0.00018009004502251257,-0.015192596298149078,-9.823290505252627,5.002501250625313e-06,1.0005002501250626e-05,-1.0005002501250626e-05,0,0,0,45.0
79897,0.00018009004502251257,-0.0051925962981490825,-9.823290505252627,5.002501250625313e-06,1.0005002501250626e-05,-1.0005002501250626e-05,0,0,0,45.12
79907,0.00018009004502251257,-0.0051925962981490825,-9.813290505252628,5.002501250625313e-06,1.0005002501250626e-05,-1.0005002501250626e-05,0,0,0,45.0
79917,-0.009819909954977488,0.0048074037018509125,-9.823290505252627,5.002501250625313e-06,1.0005002501250626e-05,-1.0005002501250626e-05,0,0,0,45.0
79927,0.00018009004502251257,-0.0051925962981490825,-9.813290505252628,5.002501250625313e-06,1.0005002501250626e-05,-1.0005002501250626e-05,0,0,0,45.06
79937,0.00018009004502251257,0.0048074037018509125,-9.813290505252628,5.002501250625313e-06,1.0005002501250626e-05,-1.0005002501250626e-05,0,0,0,44.81
79947,0.010180090045022513,0.0048074037018509125,-9.803290505252628,5.002501250625313e-06,1.0005002501250626e-05,-1.0005002501250626e-05,0,0,0,45.0
79957,0.010180090045022513,0.0048074037018509125,-9.803290505252628,5.002501250625313e-06,1.0005002501250626e-05,-1.0005002501250626e-05,0,0,0,45.12
79967,0.00018009004502251257,0.0048074037018509125,-9.803290505252628,5.002501250625313e-06,1.0005002501250626e-05,-1.0005002501250626e-05,0,0,0,45.06
79977,0.010180090045022513,0.014807403701850921,-9.813290505252628,5.002501250625313e-06,1.0005002501250626e-05,-1.0005002501250626e-05,0,0,0,45.25
79987,0.00018009004502251257,-0.0051925962981490825,-9.813290505252628,5.002501250625313e-06,1.0005002501250626e-05,-1.0005002501250626e-05,0,0,0,45.12
79997,0.00018009004502251257,-0.0051925962981490825,-9.813290505252628,5.002501250625313e-06,1.0005002501250626e-05,-1.0005002501250626e-05,0,0,0,45.25
80007,0.00018009004502251257,-0.0051925962981490825,-9.813290505252628,5.002501250625313e-06,1.0005002501250626e-05,-1.0005002501250626e-05,0,0,0,44.93
80017,0.00018009004502251257,-0.0051925962981490825,-9.813290505252628,5.002501250625313e-06,1.0005002501250626e-05,-1.0005002501250626e-05,0,0,0,45.0
80027,0.00018009004502251257,-0.0051925962981490825,-9.813290505252628,5.002501250625313e-06,1.0005002501250626e-05,-1.0005002501250626e-05,0,0,0,45.0
80037,0.00018009004502251257,-0.0051925962981490825,-9.823290505252627,5.002501250625313e-06,1.0005002501250626e-05,-1.0005002501250626e-05,0,0,0,45.12
80047,0.00018009004502251257,-0.0051925962981490825,-9.823290505252627,5.002501250625313e-06,1.0005002501250626e-05,-1.0005002501250626e-05,0,0,0,44.93
80057,0.00018009004502251257,0.0048074037018509125,-9.813290505252628,5.002501250625313e-06,1.0005002501250626e-05,-1.0005002501250626e-05,0,0,0,45.06
80067,0.00018009004502251257,0.0048074037018509125,-9.813290505252628,5.002501250625313e-06,1.0005002501250626e-05,-1.0005002501250626e-05,0,0,0,45.12
80077,0.00018009004502251257,0.0048074037018509125,-9.813290505252628,5.002501250625313e-06,1.0005002501250626e-05,-1.0005002501250626e-05,0,0,0,44.87
80087,0.00018009004502251257,0.0048074037018509125,-9.813290505252628,5.002501250625313e-06,1.0005002501250626e-05,-1.0005002501250626e-05,0,0,0,45.12
80097,0.00018009004502251257,0.0048074037018509125,-9.813290505252628,5.002501250625313e-06,1.0005002501250626e-05,-1.0005002501250626e-05,0,0,0,45.12
80107,0.00018009004502251257,-0.0051925962981490825,-9.823290505252627,5.002501250625313e-06,1.0005002501250626e-05,-1.0005002501250626e-05,0,0,0,45.0
80117,0.010180090045022513,-0.0051925962981490825,-9.813290505252628,5.002501250625313e-06,1.0005002501250626e-05,-1.0005002501250626e-05,0,0,0,45.0
80127,0.010180090045022513,-0.0051925962981490825,-9.823290505252627,5.002501250625313e-06,1.0005002501250626e-05,-1.0005002501250626e-05,0,0,0,45.12
80137,0.010180090045022513,-0.0051925962981490825,-9.823290505252627,5.002501250625313e-06,1.0005002501250626e-05,-1.0005002501250626e-05,0,0,0,45.25
80147,0.00018009004502251257,-0.0051925962981490825,-9.813290505252628,5.002501250625313e-06,1.0005002501250626e-05,-1.0005002501250626e-05,0,0,0,45.12
80157,0.00018009004502251257,-0.015192596298149078,-9.813290505252628,5.002501250625313e-06,1.0005002501250626e-05,-1.0005002501250626e-05,0,0,0,45.25
80167,0.00018009004502251257,-0.0051925962981490825,-9.823290505252627,5.002501250625313e-06,1.0005002501250626e-05,-1.0005002501250626e-05,0,0,0,45.31
80177,0.00018009004502251257,-0.0051925962981490825,-9.823290505252627,5.002501250625313e-06,1.0005002501250626e-05,-1.0005002501250626e-05,0,0,0,45.31
80187,0.00018009004502251257,-0.0051925962981490825,-9.823290505252627,5.002501250625313e-06,1.0005002501250626e-05,-1.0005002501250626e-05,0,0,0,45.0
80197,0.010180090045022513,0.0048074037018509125,-9.813290505252628,5.002501250625313e-06,1.0005002501250626e-05,-1.0005002501250626e-05,0,0,0,45.06
80207,0.010180090045022513,0.0048074037018509125,-9.813290505252628,5.002501250625313e-06,1.0005002501250626e-05,-1.0005002501250626e-05,0,0,0,44.87
80217,0.00018009004502251257,-0.0051925962981490825,-9.813290505252628,5.002501250625313e-06,1.0005002501250626e-05,-1.0005002501250626e-05,0,0,0,44.87
80227,-0.009819909954977488,-0.015192596298149078,-9.823290505252627,5.002501250625313e-06,1.0005002501250626e-05,-1.0005002501250626e-05,0,0,0,45.25
80237,-0.009819909954977488,-0.0051925962981490825,-9.823290505252627,5.002501250625313e-06,1.0005002501250626e-05,-1.0005002501250626e-05,0,0,0,45.25
80247,0.00018009004502251257,0.0048074037018509125,-9.813290505252628,5.002501250625313e-06,1.0005002501250626e-05,-1.0005002501250626e-05,0,0,0,45.0
80257,0.00018009004502251257,0.0048074037018509125,-9.813290505252628,5.002501250625313e-06,1.0005002501250626e-05,-1.0005002501250626e-05,0,0,0,45.0
80267,0.00018009004502251257,0.0048074037018509125,-9.803290505252628,5.002501250625313e-06,1.0005002501250626e-05,-1.0005002501250626e-05,0,0,0,45.12
80277,0.00018009004502251257,-0.0051925962981490825,-9.813290505252628,5.002501250625313e-06,1.0005002501250626e-05,-1.0005002501250626e-05,0,0,0,45.0
80287,0.00018009004502251257,-0.0051925962981490825,-9.813290505252628,5.002501250625313e-06,1.0005002501250626e-05,-1.0005002501250626e-05,0,0,0,44.87
80297,0.00018009004502251257,-0.0051925962981490825,-9.813290505252628,5.002501250625313e-06,1.0005002501250626e-05,-1.0005002501250626e-05,0,0,0,45.0
80307,0.00018009004502251257,-0.0051925962981490825,-9.813290505252628,5.002501250625313e-06,1.0005002501250626e-05,-1.0005002501250626e-05,0,0,0,45.06
80317,0.00018009004502251257,-0.0051925962981490825,-9.813290505252628,5.002501250625313e-06,1.0005002501250626e-05,-1.0005002501250626e-05,0,0,0,45.06
80327,0.00018009004502251257,-0.0051925962981490825,-9.813290505252628,5.002501250625313e-06,1.0005002501250626e-05,-1.0005002501250626e-05,0,0,0,44.87
80337,0.00018009004502251257,0.0048074037018509125,-9.803290505252628,5.002501250625313e-06,1.0005002501250626e-05,-1.0005002501250626e-05,0,0,0,44.87
80347,0.00018009004502251257,0.0048074037018509125,-9.803290505252628,5.002501250625313e-06,1.0005002501250626e-05,-1.0005002501250626e-05,0,0,0,45.25
80357,0.00018009004502251257,0.0048074037018509125,-9.803290505252628,5.002501250625313e-06,1.0005002501250626e-05,-1.0005002501250626e-05,0,0,0,45.0
80367,0.010180090045022513,-0.0051925962981490825,-9.803290505252628,5.002501250625313e-06,1.0005002501250626e-05,-1.0005002501250626e-05,0,0,0,45.12
80377,0.010180090045022513,0.0048074037018509125,-9.803290505252628,5.002501250625313e-06,1.0005002501250626e-05,-1.0005002501250626e-05,0,0,0,45.0
80387,0.00018009004502251257,-0.0051925962981490825,-9.813290505252628,5.002501250625313e-06,1.0005002501250626e-05,-1.0005002501250626e-05,0,0,0,45.0
80397,0.010180090045022513,-0.0051925962981490825,-9.823290505252627,5.002501250625313e-06,1.0005002501250626e-05,-1.0005002501250626e-05,0,0,0,45.12
80407,0.00018009004502251257,-0.0051925962981490825,-9.813290505252628,5.002501250625313e-06,1.0005002501250626e-05,-1.0005002501250626e-05,0,0,0,45.06
80417,0.00018009004502251257,0.0048074037018509125,-9.813290505252628,5.002501250625313e-06,1.0005002501250626e-05,-1.0005002501250626e-05,0,0,0,45.06
80427,0.00018009004502251257,0.0048074037018509125,-9.813290505252628,5.002501250625313e-06,1.0005002501250626e-05,-1.0005002501250626e-05,0,0,0,45.0
80437,0.00018009004502251257,0.0048074037018509125,-9.813290505252628,5.002501250625313e-06,1.0005002501250626e-05,-1.0005002501250626e-05,0,0,0,45.31
80447,-0.009819909954977488,0.0048074037018509125,-9.813290505252628,5.002501250625313e-06,1.0005002501250626e-05,-1.0005002501250626e-05,0,0,0,45.12
80457,-0.009819909954977488,0.0048074037018509125,-9.813290505252628,5.002501250625313e-06,1.0005002501250626e-05,-1.0005002501250626e-05,0,0,0,45.12
80467,-0.009819909954977488,0.0048074037018509125,-9.813290505252628,5.002501250625313e-06,1.0005002501250626e-05,-1.0005002501250626e-05,0,0,0,45.12
80477,0.00018009004502251257,-0.0051925962981490825,-9.813290505252628,5.002501250625313e-06,1.0005002501250626e-05,-1.0005002501250626e-05,0,0,0,45.12
80487,0.00018009004502251257,-0.015192596298149078,-9.813290505252628,5.002501250625313e-06,1.0005002501250626e-05,-1.0005002501250626e-05,0,0,0,44.93
80497,-0.009819909954977488,-0.0051925962981490825,-9.823290505252627,5.002501250625313e-06,1.0005002501250626e-05,-1.0005002501250626e-05,0,0,0,45.12
80507,0.00018009004502251257,0.0048074037018509125,-9.813290505252628,5.002501250625313e-06,1.0005002501250626e-05,-1.0005002501250626e-05,0,0,0,45.06
80517,0.00018009004502251257,0.014807403701850921,-9.813290505252628,5.002501250625313e-06,1.0005002501250626e-05,-1.0005002501250626e-05,0,0,0,45.0
80527,0.00018009004502251257,0.0048074037018509125,-9.803290505252628,5.002501250625313e-06,1.0005002501250626e-05,-1.0005002501250626e-05,0,0,0,44.93
80537,0.00018009004502251257,-0.0051925962981490825,-9.803290505252628,5.002501250625313e-06,1.0005002501250626e-05,-1.0005002501250626e-05,0,0,0,45.0
80547,0.00018009004502251257,-0.0051925962981490825,-9.803290505252628,5.002501250625313e-06,1.0005002501250626e-05,-1.0005002501250626e-05,0,0,0,45.0
80557,0.00018009004502251257,-0.0051925962981490825,-9.803290505252628,5.002501250625313e-06,1.0005002501250626e-05,-1.0005002501250626e-05,0,0,0,45.0
80567,0.00018009004502251257,-0.0051925962981490825,-9.803290505252628,5.002501250625313e-06,1.0005002501250626e-05,-1.0005002501250626e-05,0,0,0,45.0
80577,0.00018009004502251257,0.0048074037018509125,-9.803290505252628,5.002501250625313e-06,1.0005002501250626e-05,-1.0005002501250626e-05,0,0,0,45.25
80587,0.00018009004502251257,0.0048074037018509125,-9.813290505252628,5.002501250625313e-06,1.0005002501250626e-05,-1.0005002501250626e-05,0,0,0,45.06
80597,0.00018009004502251257,0.0048074037018509125,-9.813290505252628,5.002501250625313e-06,1.0005002501250626e-05,-1.0005002501250626e-05,0,0,0,45.0
80607,0.00018009004502251257,0.0048074037018509125,-9.813290505252628,5.002501250625313e-06,1.0005002501250626e-05,-1.0005002501250626e-05,0,0,0,45.0
80617,0.00018009004502251257,0.0048074037018509125,-9.813290505252628,5.002501250625313e-06,1.0005002501250626e-05,-1.0005002501250626e-05,0,0,0,45.0
80627,0.00018009004502251257,0.014807403701850921,-9.803290505252628,5.002501250625313e-06,1.0005002501250626e-05,-1.0005002501250626e-05,0,0,0,45.25
80637,0.00018009004502251257,-0.0051925962981490825,-9.803290505252628,5.002501250625313e-06,1.0005002501250626e-05,-1.0005002501250626e-05,0,0,0,45.12
80647,0.00018009004502251257,-0.0051925962981490825,-9.813290505252628,5.002501250625313e-06,1.0005002501250626e-05,-1.0005002501250626e-05,0,0,0,44.93
80657,0.00018009004502251257,0.0048074037018509125,-9.813290505252628,5.002501250625313e-06,1.0005002501250626e-05,-1.0005002501250626e-05,0,0,0,45.37
80667,0.00018009004502251257,-0.0051925962981490825,-9.823290505252627,5.002501250625313e-06,1.0005002501250626e-05,-1.0005002501250626e-05,0,0,0,45.25
80677,0.00018009004502251257,-0.0051925962981490825,-9.823290505252627,5.002501250625313e-06,1.0005002501250626e-05,-1.0005002501250626e-05,0,0,0,45.12
80687,0.00018009004502251257,-0.0051925962981490825,-9.813290505252628,5.002501250625313e-06,1.0005002501250626e-05,-1.0005002501250626e-05,0,0,0,45.25
80697,-0.009819909954977488,-0.0051925962981490825,-9.813290505252628,5.002501250625313e-06,1.0005002501250626e-05,-1.0005002501250626e-05,0,0,0,45.0
80707,-0.009819909954977488,0.0048074037018509125,-9.803290505252628,5.002501250625313e-06,1.0005002501250626e-05,-1.0005002501250626e-05,0,0,0,45.0
80717,0.00018009004502251257,0.0048074037018509125,-9.803290505252628,5.002501250625313e-06,1.0005002501250626e-05,-1.0005002501250626e-05,0,0,0,45.31
80727,0.010180090045022513,-0.0051925962981490825,-9.813290505252628,5.002501250625313e-06,1.0005002501250626e-05,-1.0005002501250626e-05,0,0,0,44.93
80737,0.00018009004502251257,-0.0051925962981490825,-9.803290505252628,5.002501250625313e-06,1.0005002501250626e-05,-1.0005002501250626e-05,0,0,0,45.25
80747,0.00018009004502251257,-0.0051925962981490825,-9.803290505252628,5.002501250625313e-06,1.0005002501250626e-05,-1.0005002501250626e-05,0,0,0,45.0
80757,-0.009819909954977488,-0.0051925962981490825,-9.803290505252628,5.002501250625313e-06,1.0005002501250626e-05,-1.0005002501250626e-05,0,0,0,45.0
80767,0.00018009004502251257,0.0048074037018509125,-9.813290505252628,5.002501250625313e-06,1.0005002501250626e-05,-1.0005002501250626e-05,0,0,0,45.0
80777,0.010180090045022513,-0.0051925962981490825,-9.813290505252628,5.002501250625313e-06,1.0005002501250626e-05,-1.0005002501250626e-05,0,0,0,44.93
80787,0.010180090045022513,-0.0051925962981490825,-9.813290505252628,5.002501250625313e-06,1.0005002501250626e-05,-1.0005002501250626e-05,0,0,0,45.12
80797,0.010180090045022513,-0.015192596298149078,-9.813290505252628,5.002501250625313e-06,1.0005002501250626e-05,-1.0005002501250626e-05,0,0,0,45.06
80807,0.00018009004502251257,-0.015192596298149078,-9.813290505252628,5.002501250625313e-06,1.0005002501250626e-05,-1.0005002501250626e-05,0,0,0,45.0
80817,0.00018009004502251257,0.0048074037018509125,-9.813290505252628,5.002501250625313e-06,1.0005002501250626e-05,-1.0005002501250626e-05,0,0,0,44.93
80827,-0.009819909954977488,-0.0051925962981490825,-9.813290505252628,5.002501250625313e-06,1.0005002501250626e-05,-1.0005002501250626e-05,0,0,0,45.0
80837,-0.009819909954977488,-0.0051925962981490825,-9.813290505252628,5.002501250625313e-06,1.0005002501250626e-05,-1.0005002501250626e-05,0,0,0,44.93
80847,0.00018009004502251257,0.0048074037018509125,-9.813290505252628,5.002501250625313e-06,1.0005002501250626e-05,-1.0005002501250626e-05,0,0,0,45.06
80857,0.00018009004502251257,0.0048074037018509125,-9.813290505252628,5.002501250625313e-06,1.0005002501250626e-05,-1.0005002501250626e-05,0,0,0,45.12
80867,0.00018009004502251257,0.0048074037018509125,-9.813290505252628,5.002501250625313e-06,1.0005002501250626e-05,-1.0005002501250626e-05,0,0,0,45.0
80877,-0.009819909954977488,0.0048074037018509125,-9.813290505252628,5.002501250625313e-06,1.0005002501250626e-05,-1.0005002501250626e-05,0,0,0,44.93
80887,0.00018009004502251257,-0.0051925962981490825,-9.813290505252628,5.002501250625313e-06,1.0005002501250626e-05,-1.0005002501250626e-05,0,0,0,45.12
80897,0.00018009004502251257,-0.0051925962981490825,-9.803290505252628,5.002501250625313e-06,1.0005002501250626e-05,-1.0005002501250626e-05,0,0,0,44.93
80907,0.010180090045022513,-0.0051925962981490825,-9.813290505252628,5.002501250625313e-06,1.0005002501250626e-05,-1.0005002501250626e-05,0,0,0,45.0
80917,0.010180090045022513,-0.0051925962981490825,-9.803290505252628,5.002501250625313e-06,1.0005002501250626e-05,-1.0005002501250626e-05,0,0,0,45.0
80927,0.010180090045022513,-0.0051925962981490825,-9.813290505252628,5.002501250625313e-06,1.0005002501250626e-05,-1.0005002501250626e-05,0,0,0,45.0
80937,0.00018009004502251257,-0.0051925962981490825,-9.813290505252628,5.002501250625313e-06,1.0005002501250626e-05,-1.0005002501250626e-05,0,0,0,44.87
80947,0.00018009004502251257,-0.0051925962981490825,-9.813290505252628,5.002501250625313e-06,1.0005002501250626e-05,-1.0005002501250626e-05,0,0,0,45.12
80957,0.00018009004502251257,0.0048074037018509125,-9.813290505252628,5.002501250625313e-06,1.0005002501250626e-05,-1.0005002501250626e-05,0,0,0,45.0
80967,0.00018009004502251257,-0.0051925962981490825,-9.813290505252628,5.002501250625313e-06,1.0005002501250626e-05,-1.0005002501250626e-05,0,0,0,45.0
80977,0.00018009004502251257,-0.0051925962981490825,-9.823290505252627,5.002501250625313e-06,1.0005002501250626e-05,-1.0005002501250626e-05,0,0,0,45.0
80987,0.00018009004502251257,0.0048074037018509125,-9.813290505252628,5.002501250625313e-06,1.0005002501250626e-05,-1.0005002501250626e-05,0,0,0,45.12
80997,0.00018009004502251257,-0.0051925962981490825,-9.803290505252628,5.002501250625313e-06,1.0005002501250626e-05,-1.0005002501250626e-05,0,0,0,44.93
81007,-0.009819909954977488,-0.0051925962981490825,-9.803290505252628,5.002501250625313e-06,1.0005002501250626e-05,-1.0005002501250626e-05,0,0,0,45.12
81017,-0.009819909954977488,0.0048074037018509125,-9.803290505252628,5.002501250625313e-06,1.0005002501250626e-05,-1.0005002501250626e-05,0,0,0,44.87
81027,0.00018009004502251257,0.0048074037018509125,-9.813290505252628,5.002501250625313e-06,1.0005002501250626e-05,-1.0005002501250626e-05,0,0,0,44.93
81037,0.010180090045022513,0.0048074037018509125,-9.813290505252628,5.002501250625313e-06,1.0005002501250626e-05,-1.0005002501250626e-05,0,0,0,45.0
81047,0.010180090045022513,-0.0051925962981490825,-9.813290505252628,5.002501250625313e-06,1.0005002501250626e-05,-1.0005002501250626e-05,0,0,0,45.06
81057,0.00018009004502251257,-0.0051925962981490825,-9.803290505252628,5.002501250625313e-06,1.0005002501250626e-05,-1.0005002501250626e-05,0,0,0,45.0
81067,0.00018009004502251257,0.0048074037018509125,-9.803290505252628,5.002501250625313e-06,1.0005002501250626e-05,-1.0005002501250626e-05,0,0,0,45.06
81077,-0.009819909954977488,0.0048074037018509125,-9.813290505252628,5.002501250625313e-06,1.0005002501250626e-05,-1.0005002501250626e-05,0,0,0,45.06
81087,0.00018009004502251257,0.0048074037018509125,-9.823290505252627,5.002501250625313e-06,1.0005002501250626e-05,-1.0005002501250626e-05,0,0,0,45.12
81097,0.00018009004502251257,-0.0051925962981490825,-9.813290505252628,5.002501250625313e-06,1.0005002501250626e-05,-1.0005002501250626e-05,0,0,0,45.12
81107,0.00018009004502251257,-0.0051925962981490825,-9.813290505252628,5.002501250625313e-06,1.0005002501250626e-05,-1.0005002501250626e-05,0,0,0,45.12
81117,0.00018009004502251257,-0.0051925962981490825,-9.813290505252628,5.002501250625313e-06,1.0005002501250626e-05,-1.0005002501250626e-05,0,0,0,45.25
81127,0.010180090045022513,-0.0051925962981490825,-9.823290505252627,5.002501250625313e-06,1.0005002501250626e-05,-1.0005002501250626e-05,0,0,0,45.12
81137,0.00018009004502251257,-0.015192596298149078,-9.823290505252627,5.002501250625313e-06,1.0005002501250626e-05,-1.0005002501250626e-05,0,0,0,45.12
81147,-0.009819909954977488,-0.0051925962981490825,-9.803290505252628,5.002501250625313e-06,1.0005002501250626e-05,-1.0005002501250626e-05,0,0,0,45.0
81157,-0.009819909954977488,0.0048074037018509125,-9.813290505252628,5.002501250625313e-06,1.0005002501250626e-05,-1.0005002501250626e-05,0,0,0,45.25
81167,-0.009819909954977488,0.0048074037018509125,-9.813290505252628,5.002501250625313e-06,1.0005002501250626e-05,-1.0005002501250626e-05,0,0,0,45.06
81177,0.00018009004502251257,0.0048074037018509125,-9.803290505252628,5.002501250625313e-06,1.0005002501250626e-05,-1.0005002501250626e-05,0,0,0,45.25
81187,0.00018009004502251257,0.0048074037018509125,-9.803290505252628,5.002501250625313e-06,1.0005002501250626e-05,-1.0005002501250626e-05,0,0,0,45.06
81197,0.00018009004502251257,0.0048074037018509125,-9.803290505252628,5.002501250625313e-06,1.0005002501250626e-05,-1.0005002501250626e-05,0,0,0,45.0
81207,0.00018009004502251257,0.0048074037018509125,-9.803290505252628,5.002501250625313e-06,1.0005002501250626e-05,-1.0005002501250626e-05,0,0,0,44.87
81217,-0.009819909954977488,0.0048074037018509125,-9.803290505252628,5.002501250625313e-06,1.0005002501250626e-05,-1.0005002501250626e-05,0,0,0,45.31
81227,-0.009819909954977488,0.0048074037018509125,-9.803290505252628,5.002501250625313e-06,1.0005002501250626e-05,-1.0005002501250626e-05,0,0,0,45.12
81237,-0.009819909954977488,0.0048074037018509125,-9.813290505252628,5.002501250625313e-06,1.0005002501250626e-05,-1.0005002501250626e-05,0,0,0,45.25
81247,-0.009819909954977488,-0.0051925962981490825,-9.823290505252627,5.002501250625313e-06,1.0005002501250626e-05,-1.0005002501250626e-05,0,0,0,45.0
81257,0.00018009004502251257,0.0048074037018509125,-9.823290505252627,5.002501250625313e-06,1.0005002501250626e-05,-1.0005002501250626e-05,0,0,0,45.0
81267,0.00018009004502251257,0.0048074037018509125,-9.813290505252628,5.002501250625313e-06,1.0005002501250626e-05,-1.0005002501250626e-05,0,0,0,45.12
81277,0.00018009004502251257,0.0048074037018509125,-9.813290505252628,5.002501250625313e-06,1.0005002501250626e-05,-1.0005002501250626e-05,0,0,0,44.93
81287,0.00018009004502251257,-0.0051925962981490825,-9.813290505252628,5.002501250625313e-06,1.0005002501250626e-05,-1.0005002501250626e-05,0,0,0,45.25
81297,0.00018009004502251257,0.0048074037018509125,-9.813290505252628,5.002501250625313e-06,1.0005002501250626e-05,-1.0005002501250626e-05,0,0,0,45.31
81307,0.010180090045022513,0.014807403701850921,-9.803290505252628,5.002501250625313e-06,1.0005002501250626e-05,-1.0005002501250626e-05,0,0,0,45.06
81317,0.010180090045022513,0.0048074037018509125,-9.813290505252628,5.002501250625313e-06,1.0005002501250626e-05,-1.0005002501250626e-05,0,0,0,45.12
81327,0.00018009004502251257,-0.0051925962981490825,-9.803290505252628,5.002501250625313e-06,1.0005002501250626e-05,-1.0005002501250626e-05,0,0,0,45.12
81337,0.010180090045022513,-0.0051925962981490825,-9.813290505252628,5.002501250625313e-06,-0.05998999499749875,-1.0005002501250626e-05,0,0,0,45.12
81347,0.00018009004502251257,0.0048074037018509125,-9.813290505252628,-0.019994997498749376,-0.10998999499749874,0.009989994997498749,0,0,0,45.12
81357,-0.009819909954977488,0.014807403701850921,-9.813290505252628,-0.029994997498749374,-0.07998999499749875,-1.0005002501250626e-05,0,0,0,45.12
81367,-0.009819909954977488,0.024807403701850916,-9.823290505252627,-0.009994997498749375,-0.01998999499749875,-1.0005002501250626e-05,0,0,0,44.93
81377,-0.009819909954977488,0.014807403701850921,-9.833290505252627,5.002501250625313e-06,0.010010005002501252,-1.0005002501250626e-05,0,0,0,45.06
81387,-0.009819909954977488,-0.0051925962981490825,-9.833290505252627,0.010005002501250625,0.02001000500250125,-1.0005002501250626e-05,0,0,0,45.12
81397,0.00018009004502251257,-0.015192596298149078,-9.823290505252627,5.002501250625313e-06,0.010010005002501252,-1.0005002501250626e-05,0,0,0,45.12
81407,-0.009819909954977488,-0.0051925962981490825,-9.813290505252628,-0.019994997498749376,0.010010005002501252,-1.0005002501250626e-05,0,0,0,44.93
81417,-0.009819909954977488,0.0048074037018509125,-9.803290505252628,-0.019994997498749376,0.010010005002501252,-1.0005002501250626e-05,0,0,0,45.12
81427,0.00018009004502251257,0.0048074037018509125,-9.793290505252628,-0.009994997498749375,0.010010005002501252,-1.0005002501250626e-05,0,0,0,45.06
81437,0.00018009004502251257,0.0048074037018509125,-9.793290505252628,-0.009994997498749375,0.02001000500250125,-1.0005002501250626e-05,0,0,0,45.0
81447,0.010180090045022513,0.0048074037018509125,-9.813290505252628,-0.009994997498749375,1.0005002501250626e-05,-1.0005002501250626e-05,0,0,0,45.0
81457,0.00018009004502251257,0.014807403701850921,-9.813290505252628,-0.009994997498749375,1.0005002501250626e-05,-1.0005002501250626e-05,0,0,0,45.12
81467,0.00018009004502251257,0.0048074037018509125,-9.813290505252628,-0.009994997498749375,1.0005002501250626e-05,-1.0005002501250626e-05,0,0,0,45.25
81477,0.00018009004502251257,0.014807403701850921,-9.803290505252628,-0.019994997498749376,-0.009989994997498749,-1.0005002501250626e-05,0,0,0,45.0
81487,0.00018009004502251257,0.0048074037018509125,-9.803290505252628,-0.009994997498749375,-0.02998999499749875,-1.0005002501250626e-05,0,0,0,45.0
81497,-0.009819909954977488,-0.0051925962981490825,-9.823290505252627,-0.019994997498749376,-0.03998999499749875,-1.0005002501250626e-05,0,0,0,45.0
81507,-0.009819909954977488,-0.015192596298149078,-9.823290505252627,-0.03999499749874937,-0.01998999499749875,-1.0005002501250626e-05,0,0,0,45.0
81517,-0.009819909954977488,-0.0051925962981490825,-9.803290505252628,-0.049994997498749374,1.0005002501250626e-05,-1.0005002501250626e-05,0,0,0,45.06
81527,0.00018009004502251257,-0.0051925962981490825,-9.813290505252628,-0.049994997498749374,0.02001000500250125,-1.0005002501250626e-05,0,0,0,44.93
81537,0.00018009004502251257,0.0048074037018509125,-9.813290505252628,-0.03999499749874937,0.02001000500250125,-1.0005002501250626e-05,0,0,0,45.12
81547,0.00018009004502251257,0.014807403701850921,-9.803290505252628,-0.019994997498749376,0.02001000500250125,-1.0005002501250626e-05,0,0,0,44.93
81557,0.010180090045022513,0.0048074037018509125,-9.803290505252628,-0.019994997498749376,0.010010005002501252,-1.0005002501250626e-05,0,0,0,45.25
81567,0.00018009004502251257,0.0048074037018509125,-9.803290505252628,-0.019994997498749376,1.0005002501250626e-05,-1.0005002501250626e-05,0,0,0,45.12
81577,0.010180090045022513,0.0048074037018509125,-9.803290505252628,-0.019994997498749376,-0.01998999499749875,-1.0005002501250626e-05,0,0,0,45.0
81587,0.00018009004502251257,0.0048074037018509125,-9.803290505252628,-0.019994997498749376,-0.03998999499749875,-1.0005002501250626e-05,0,0,0,44.87
81597,-0.009819909954977488,0.0048074037018509125,-9.813290505252628,-0.019994997498749376,-0.02998999499749875,-1.0005002501250626e-05,0,0,0,45.06
81607,0.00018009004502251257,0.0048074037018509125,-9.813290505252628,-0.029994997498749374,-0.01998999499749875,-1.0005002501250626e-05,0,0,0,45.06
81617,0.00018009004502251257,0.0048074037018509125,-9.813290505252628,-0.03999499749874937,-0.01998999499749875,-1.0005002501250626e-05,0,0,0,44.93
81627,0.00018009004502251257,0.0048074037018509125,-9.813290505252628,-0.049994997498749374,-0.02998999499749875,-1.0005002501250626e-05,0,0,0,45.31
81637,0.00018009004502251257,-0.0051925962981490825,-9.813290505252628,-0.05999499749874937,-0.04998999499749875,0.009989994997498749,0,0,0,45.06
81647,0.010180090045022513,0.0048074037018509125,-9.823290505252627,-0.05999499749874937,-0.07998999499749875,0.009989994997498749,0,0,0,45.0
81657,0.02018009004502251,0.014807403701850921,-9.823290505252627,-0.049994997498749374,-0.12998999499749875,0.01998999499749875,0,0,0,45.0
81667,0.05018009004502251,0.0048074037018509125,-9.823290505252627,-0.03999499749874937,-0.16998999499749876,0.03998999499749875,0,0,0,45.12
81677,0.9601800900450225,-0.2751925962981491,-9.823290505252627,0.010005002501250625,-0.05998999499749875,0.41998999499749873,0,0,0,45.06
81687,1.3101800900450224,-0.19519259629814908,-9.823290505252627,0.030005002501250624,-0.009989994997498749,0.8799899949974987,0,0,0,45.31
81697,1.1801800900450223,0.08480740370185093,-9.813290505252628,0.05000500250125063,1.0005002501250626e-05,0.30998999499749874,0,0,0,45.12
81707,1.1501800900450223,0.18480740370185095,-9.823290505252627,0.030005002501250624,1.0005002501250626e-05,-1.1000100050025012,0,0,0,45.12
81717,1.2201800900450224,0.21480740370185092,-9.823290505252627,5.002501250625313e-06,0.02001000500250125,-2.6600100050025013,0,0,0,45.12
81727,1.2701800900450224,0.2748074037018509,-9.823290505252627,-0.009994997498749375,0.04001000500250125,-3.940010005002501,0,0,0,45.12
81737,1.2101800900450224,0.2648074037018509,-9.823290505252627,-0.009994997498749375,0.05001000500250125,-4.560010005002501,0,0,0,45.31
81747,1.1101800900450225,0.17480740370185094,-9.823290505252627,-0.019994997498749376,0.06001000500250125,-4.380010005002501,0,0,0,45.0
81757,1.0801800900450225,0.04480740370185092,-9.823290505252627,-0.029994997498749374,0.04001000500250125,-3.7000100050025013,0,0,0,45.12
81767,1.0001800900450224,-0.14519259629814907,-9.813290505252628,-0.03999499749874937,0.02001000500250125,-2.500010005002501,0,0,0,45.12
81777,0.9801800900450225,-0.2851925962981491,-9.823290505252627,-0.049994997498749374,1.0005002501250626e-05,-1.160010005002501,0,0,0,44.93
81787,0.9701800900450225,-0.2851925962981491,-9.823290505252627,-0.03999499749874937,-0.02998999499749875,-1.0005002501250626e-05,0,0,0,44.93
81797,0.9501800900450225,-0.22519259629814908,-9.813290505252628,-0.019994997498749376,-0.02998999499749875,0.7999899949974988,0,0,0,45.12
81807,0.9801800900450225,-0.1751925962981491,-9.813290505252628,-0.009994997498749375,-0.01998999499749875,1.1299899949974987,0,0,0,45.0
81817,0.9701800900450225,-0.11519259629814908,-9.803290505252628,-0.009994997498749375,1.0005002501250626e-05,1.2299899949974988,0,0,0,45.0
81827,0.8801800900450225,-0.08519259629814908,-9.803290505252628,5.002501250625313e-06,1.0005002501250626e-05,1.4199899949974988,0,0,0,45.06
81837,0.7601800900450225,-0.07519259629814909,-9.813290505252628,0.010005002501250625,1.0005002501250626e-05,1.7099899949974988,0,0,0,45.06
81847,0.7101800900450225,-0.08519259629814908,-9.823290505252627,0.05000500250125063,1.0005002501250626e-05,2.0499899949974987,0,0,0,45.12
81857,0.7001800900450225,0.014807403701850921,-9.823290505252627,0.08000500250125063,1.0005002501250626e-05,2.0899899949974987,0,0,0,45.12
81867,0.7701800900450225,0.18480740370185095,-9.813290505252628,0.08000500250125063,1.0005002501250626e-05,1.4099899949974988,0,0,0,44.93
81877,0.7801800900450225,0.24480740370185095,-9.823290505252627,0.060005002501250626,1.0005002501250626e-05,-0.22001000500250126,0,0,0,45.12
81887,0.6601800900450225,0.16480740370185093,-9.823290505252627,5.002501250625313e-06,0.010010005002501252,-1.900010005002501,0,0,0,45.06
81897,0.4901800900450225,0.08480740370185093,-9.813290505252628,-0.03999499749874937,0.03001000500250125,-2.6000100050025012,0,0,0,45.25
81907,0.3701800900450225,0.04480740370185092,-9.803290505252628,-0.03999499749874937,0.010010005002501252,-2.360010005002501,0,0,0,45.25
81917,0.28018009004502253,0.05480740370185093,-9.793290505252628,5.002501250625313e-06,-0.01998999499749875,-1.680010005002501,0,0,0,45.06
81927,0.20018009004502252,0.08480740370185093,-9.793290505252628,0.030005002501250624,-0.03998999499749875,-1.0300100050025012,0,0,0,45.0
81937,0.1901800900450225,0.11480740370185093,-9.793290505252628,0.010005002501250625,-0.009989994997498749,-0.18001000500250125,0,0,0,45.0
81947,0.3001800900450225,0.1348074037018509,-9.793290505252628,0.030005002501250624,1.0005002501250626e-05,0.7899899949974988,0,0,0,45.25
81957,0.3201800900450225,0.10480740370185092,-9.803290505252628,0.07000500250125063,-0.02998999499749875,1.339989994997499,0,0,0,45.12
81967,0.2701800900450225,0.024807403701850916,-9.813290505252628,0.12000500250125062,-0.04998999499749875,1.559989994997499,0,0,0,45.12
81977,0.18018009004502253,0.0048074037018509125,-9.823290505252627,0.12000500250125062,-0.04998999499749875,1.6599899949974988,0,0,0,45.0
81987,0.21018009004502253,0.024807403701850916,-9.833290505252627,0.13000500250125063,-0.03998999499749875,1.5199899949974989,0,0,0,45.0
81997,0.1601800900450225,-0.025192596298149086,-9.823290505252627,0.16000500250125063,-0.04998999499749875,1.1699899949974988,0,0,0,45.12
82007,0.10018009004502251,-0.10519259629814909,-9.833290505252627,0.14000500250125064,-0.04998999499749875,1.039989994997499,0,0,0,44.87
82017,0.08018009004502252,-0.07519259629814909,-9.833290505252627,0.12000500250125062,-0.04998999499749875,1.2199899949974988,0,0,0,45.12
82027,0.11018009004502252,0.03480740370185091,-9.823290505252627,0.13000500250125063,-0.15998999499749875,1.4099899949974988,0,0,0,45.12
82037,0.14018009004502252,0.11480740370185093,-9.813290505252628,0.10000500250125063,-0.22998999499749875,1.5099899949974989,0,0,0,45.06
82047,0.14018009004502252,0.17480740370185094,-9.803290505252628,0.030005002501250624,-0.18998999499749875,1.4899899949974988,0,0,0,45.12
82057,0.040180090045022515,0.22480740370185093,-9.803290505252628,-0.049994997498749374,-0.08998999499749874,1.2699899949974989,0,0,0,45.25
82067,-0.06981990995497749,0.2048074037018509,-9.803290505252628,-0.13999499749874939,0.06001000500250125,1.2099899949974988,0,0,0,45.06
82077,-0.05981990995497749,0.18480740370185095,-9.793290505252628,-0.16999499749874938,0.12001000500250125,1.2199899949974988,0,0,0,45.0
82087,-0.019819909954977486,0.15480740370185092,-9.793290505252628,-0.13999499749874939,0.09001000500250125,0.9999899949974987,0,0,0,45.0
82097,-0.07981990995497748,0.07480740370185092,-9.793290505252628,-0.06999499749874938,0.010010005002501252,0.5699899949974987,0,0,0,45.12
82107,-0.20981990995497748,-0.055192596298149085,-9.803290505252628,-0.029994997498749374,1.0005002501250626e-05,0.32998999499749876,0,0,0,45.0
82117,-0.22981990995497747,-0.06519259629814908,-9.813290505252628,-0.009994997498749375,1.0005002501250626e-05,0.48998999499749873,0,0,0,45.06
82127,-0.11981990995497749,0.0048074037018509125,-9.813290505252628,0.030005002501250624,-0.01998999499749875,0.8399899949974987,0,0,0,44.81
82137,-0.05981990995497749,0.06480740370185091,-9.823290505252627,0.010005002501250625,-0.01998999499749875,0.9599899949974987,0,0,0,45.0
82147,0.14018009004502252,0.18480740370185095,-9.813290505252628,-0.019994997498749376,1.0005002501250626e-05,0.7299899949974987,0,0,0,45.25
82157,0.00018009004502251257,0.2648074037018509,-9.803290505252628,-0.029994997498749374,1.0005002501250626e-05,0.16998999499749876,0,0,0,45.12
82167,-0.17981990995497749,0.15480740370185092,-9.813290505252628,-0.08999499749874937,0.09001000500250125,0.16998999499749876,0,0,0,44.93
82177,-0.20981990995497748,0.12480740370185091,-9.803290505252628,-0.13999499749874939,0.15001000500250125,0.6799899949974988,0,0,0,45.12
82187,-0.09981990995497748,0.17480740370185094,-9.813290505252628,-0.06999499749874938,0.12001000500250125,0.9999899949974987,0,0,0,45.0
82197,-0.11981990995497749,0.18480740370185095,-9.813290505252628,5.002501250625313e-06,0.08001000500250126,1.049989994997499,0,0,0,44.93
82207,-0.11981990995497749,0.1348074037018509,-9.833290505252627,0.030005002501250624,0.07001000500250126,1.1599899949974988,0,0,0,45.0
82217,-0.10981990995497748,0.11480740370185093,-9.813290505252628,0.060005002501250626,0.06001000500250125,1.4099899949974988,0,0,0,44.93
82227,-0.07981990995497748,0.15480740370185092,-9.813290505252628,0.12000500250125062,1.0005002501250626e-05,1.4399899949974988,0,0,0,44.93
82237,-0.10981990995497748,0.1348074037018509,-9.813290505252628,0.18000500250125062,-0.08998999499749874,1.1799899949974988,0,0,0,45.0
82247,-0.22981990995497747,0.05480740370185093,-9.823290505252627,0.15000500250125062,-0.11998999499749874,1.059989994997499,0,0,0,45.0
82257,-0.2998199099549775,-0.025192596298149086,-9.823290505252627,0.060005002501250626,-0.06998999499749875,1.119989994997499,0,0,0,45.25
82267,-0.2898199099549775,-0.025192596298149086,-9.813290505252628,5.002501250625313e-06,-0.05998999499749875,1.109989994997499,0,0,0,45.25
82277,-0.3598199099549775,0.0048074037018509125,-9.803290505252628,-0.019994997498749376,-0.02998999499749875,0.9699899949974987,0,0,0,45.31
82287,-0.39981990995497746,0.0048074037018509125,-9.813290505252628,-0.03999499749874937,0.03001000500250125,1.1299899949974987,0,0,0,45.25
82297,-0.3098199099549775,0.06480740370185091,-9.823290505252627,-0.05999499749874937,0.09001000500250125,1.4799899949974988,0,0,0,45.06
82307,-0.17981990995497749,0.17480740370185094,-9.813290505252628,-0.06999499749874938,0.10001000500250126,1.599989994997499,0,0,0,45.12
82317,-0.05981990995497749,0.23480740370185094,-9.803290505252628,-0.049994997498749374,0.06001000500250125,1.5199899949974989,0,0,0,45.0
82327,0.010180090045022513,0.2048074037018509,-9.793290505252628,5.002501250625313e-06,0.03001000500250125,1.2599899949974989,0,0,0,45.0
82337,-0.009819909954977488,0.05480740370185093,-9.803290505252628,0.030005002501250624,0.010010005002501252,0.9599899949974987,0,0,0,45.12
82347,-0.10981990995497748,-0.15519259629814908,-9.813290505252628,0.010005002501250625,0.07001000500250126,0.9799899949974987,0,0,0,45.0
82357,-0.04981990995497748,-0.1751925962981491,-9.803290505252628,-0.009994997498749375,0.11001000500250126,1.059989994997499,0,0,0,45.12
82367,0.010180090045022513,-0.055192596298149085,-9.803290505252628,0.030005002501250624,0.03001000500250125,0.9299899949974988,0,0,0,45.06
82377,0.05018009004502251,-0.0051925962981490825,-9.803290505252628,0.08000500250125063,-0.009989994997498749,0.7599899949974988,0,0,0,45.25
82387,0.09018009004502252,0.03480740370185091,-9.813290505252628,0.08000500250125063,-0.009989994997498749,0.6499899949974988,0,0,0,45.25
82397,0.06018009004502252,0.08480740370185093,-9.813290505252628,0.030005002501250624,0.03001000500250125,0.6099899949974987,0,0,0,45.0
82407,0.02018009004502251,0.11480740370185093,-9.813290505252628,5.002501250625313e-06,0.09001000500250125,0.5299899949974988,0,0,0,45.12
82417,-0.10981990995497748,0.014807403701850921,-9.823290505252627,-0.019994997498749376,0.06001000500250125,0.7299899949974987,0,0,0,45.0
82427,-0.1898199099549775,-0.0051925962981490825,-9.823290505252627,-0.03999499749874937,-0.009989994997498749,1.0099899949974989,0,0,0,45.12
82437,-0.17981990995497749,-0.04519259629814908,-9.823290505252627,-0.05999499749874937,-0.05998999499749875,1.099989994997499,0,0,0,45.12
82447,-0.1598199099549775,-0.07519259629814909,-9.823290505252627,-0.07999499749874937,-0.05998999499749875,0.9199899949974988,0,0,0,45.12
82457,-0.2498199099549775,-0.10519259629814909,-9.803290505252628,-0.10999499749874937,-0.06998999499749875,0.7899899949974988,0,0,0,45.06
82467,0.010180090045022513,-0.06519259629814908,-9.783290505252628,5.002501250625313e-06,-0.009989994997498749,0.5599899949974988,0,0,0,45.25
82477,0.040180090045022515,-0.12519259629814908,-9.803290505252628,0.030005002501250624,0.02001000500250125,0.19998999499749875,0,0,0,45.0
82487,0.10018009004502251,-0.21519259629814907,-9.813290505252628,0.05000500250125063,-0.009989994997498749,0.10998999499749874,0,0,0,45.06
82497,0.12018009004502252,-0.20519259629814907,-9.803290505252628,0.07000500250125063,-0.05998999499749875,0.14998999499749874,0,0,0,45.06
82507,0.14018009004502252,-0.1751925962981491,-9.813290505252628,0.04000500250125063,-0.06998999499749875,0.24998999499749874,0,0,0,45.0
82517,0.1601800900450225,-0.10519259629814909,-9.813290505252628,0.030005002501250624,-0.04998999499749875,0.39998999499749877,0,0,0,45.12
82527,0.1601800900450225,-0.06519259629814908,-9.813290505252628,5.002501250625313e-06,1.0005002501250626e-05,0.5799899949974987,0,0,0,45.12
82537,0.1901800900450225,0.024807403701850916,-9.803290505252628,5.002501250625313e-06,0.05001000500250125,0.6199899949974987,0,0,0,45.0
82547,0.1901800900450225,0.11480740370185093,-9.813290505252628,0.020005002501250625,0.04001000500250125,0.5699899949974987,0,0,0,45.12
82557,0.21018009004502253,0.1348074037018509,-9.813290505252628,0.030005002501250624,0.04001000500250125,0.6499899949974988,0,0,0,45.0
82567,0.20018009004502252,0.1448074037018509,-9.813290505252628,5.002501250625313e-06,0.06001000500250125,0.6599899949974988,0,0,0,45.31
82577,0.12018009004502252,0.12480740370185091,-9.813290505252628,-0.019994997498749376,0.04001000500250125,0.5899899949974987,0,0,0,45.12
82587,0.05018009004502251,0.03480740370185091,-9.823290505252627,-0.07999499749874937,0.04001000500250125,0.6899899949974987,0,0,0,44.81
82597,0.08018009004502252,-0.08519259629814908,-9.833290505252627,-0.22999499749874938,0.12001000500250125,0.8799899949974987,0,0,0,45.06
82607,0.17018009004502252,-0.09519259629814908,-9.813290505252628,-0.21999499749874937,0.09001000500250125,0.9199899949974988,0,0,0,45.25
82617,0.18018009004502253,-0.04519259629814908,-9.803290505252628,-0.06999499749874938,-0.02998999499749875,0.7899899949974988,0,0,0,45.31
82627,0.17018009004502252,-0.04519259629814908,-9.803290505252628,0.060005002501250626,-0.11998999499749874,0.8299899949974987,0,0,0,45.37
82637,0.1901800900450225,-0.07519259629814909,-9.803290505252628,0.12000500250125062,-0.14998999499749874,0.9199899949974988,0,0,0,45.0
82647,0.14018009004502252,-0.06519259629814908,-9.803290505252628,0.14000500250125064,-0.13998999499749876,0.5799899949974987,0,0,0,45.12
82657,0.040180090045022515,-0.08519259629814908,-9.803290505252628,0.15000500250125062,-0.15998999499749875,0.09998999499749875,0,0,0,45.12
82667,0.010180090045022513,-0.14519259629814907,-9.803290505252628,0.10000500250125063,-0.07998999499749875,-0.11001000500250126,0,0,0,45.12
82677,0.02018009004502251,-0.14519259629814907,-9.813290505252628,0.060005002501250626,1.0005002501250626e-05,-0.39001000500250127,0,0,0,45.0
82687,-0.05981990995497749,-0.055192596298149085,-9.823290505252627,0.04000500250125063,1.0005002501250626e-05,-0.8400100050025012,0,0,0,45.25
82697,-0.1898199099549775,-0.025192596298149086,-9.813290505252628,0.05000500250125063,-0.02998999499749875,-0.8200100050025012,0,0,0,44.93
82707,-0.17981990995497749,-0.015192596298149078,-9.823290505252627,0.09000500250125062,-0.10998999499749874,-0.38001000500250126,0,0,0,45.31
82717,-0.09981990995497748,-0.03519259629814908,-9.833290505252627,0.10000500250125063,-0.15998999499749875,-0.10001000500250126,0,0,0,45.06
82727,-0.04981990995497748,-0.04519259629814908,-9.823290505252627,0.05000500250125063,-0.11998999499749874,-0.23001000500250127,0,0,0,45.06
82737,-0.06981990995497749,0.014807403701850921,-9.803290505252628,0.030005002501250624,-0.05998999499749875,-0.5400100050025013,0,0,0,45.0
82747,-0.17981990995497749,0.04480740370185092,-9.793290505252628,0.04000500250125063,-0.02998999499749875,-0.8300100050025012,0,0,0,45.12
82757,-0.2198199099549775,-0.0051925962981490825,-9.803290505252628,-0.009994997498749375,0.05001000500250125,-0.8000100050025013,0,0,0,44.93
82767,-0.13981990995497748,-0.03519259629814908,-9.803290505252628,-0.11999499749874937,0.07001000500250126,-0.5600100050025013,0,0,0,44.87
82777,0.00018009004502251257,0.014807403701850921,-9.803290505252628,-0.11999499749874937,0.03001000500250125,-0.48001000500250124,0,0,0,45.12
82787,-0.029819909954977488,0.06480740370185091,-9.813290505252628,-0.10999499749874937,1.0005002501250626e-05,-0.5300100050025013,0,0,0,44.93
82797,-0.1298199099549775,0.04480740370185092,-9.823290505252627,-0.11999499749874937,1.0005002501250626e-05,-0.33001000500250127,0,0,0,45.31
82807,-0.2898199099549775,0.0048074037018509125,-9.833290505252627,-0.11999499749874937,0.02001000500250125,-0.13001000500250126,0,0,0,45.06
82817,-0.40981990995497747,-0.03519259629814908,-9.833290505252627,-0.13999499749874939,0.06001000500250125,0.19998999499749875,0,0,0,45.0
82827,-0.3598199099549775,0.014807403701850921,-9.803290505252628,-0.07999499749874937,1.0005002501250626e-05,0.5999899949974987,0,0,0,45.12
82837,-0.3098199099549775,0.10480740370185092,-9.813290505252628,-0.009994997498749375,-0.07998999499749875,0.9199899949974988,0,0,0,45.12
82847,-0.17981990995497749,0.1448074037018509,-9.813290505252628,0.010005002501250625,-0.10998999499749874,1.119989994997499,0,0,0,45.31
82857,-0.13981990995497748,0.1448074037018509,-9.813290505252628,0.05000500250125063,-0.11998999499749874,1.099989994997499,0,0,0,45.31
82867,-0.2598199099549775,0.06480740370185091,-9.823290505252627,0.060005002501250626,-0.07998999499749875,0.9399899949974987,0,0,0,45.06
82877,-0.3898199099549775,-0.025192596298149086,-9.813290505252628,0.060005002501250626,-0.009989994997498749,0.8199899949974987,0,0,0,45.12
82887,-0.5998199099549775,-0.11519259629814908,-9.813290505252628,0.07000500250125063,0.06001000500250125,0.5299899949974988,0,0,0,45.12
82897,-0.5898199099549775,-0.14519259629814907,-9.823290505252627,0.10000500250125063,0.08001000500250126,0.25998999499749875,0,0,0,45.0
82907,-0.5298199099549775,-0.04519259629814908,-9.813290505252628,0.11000500250125063,0.02001000500250125,0.07998999499749875,0,0,0,45.0
82917,-0.4798199099549775,0.03480740370185091,-9.813290505252628,0.13000500250125063,-0.01998999499749875,0.02998999499749875,0,0,0,45.12
82927,-0.4898199099549775,0.05480740370185093,-9.803290505252628,0.12000500250125062,0.02001000500250125,0.10998999499749874,0,0,0,45.25
82937,-0.46981990995497747,0.09480740370185091,-9.803290505252628,0.10000500250125063,0.05001000500250125,0.42998999499749874,0,0,0,44.93
82947,-0.3898199099549775,0.16480740370185093,-9.803290505252628,0.09000500250125062,0.03001000500250125,0.9199899949974988,0,0,0,44.87
82957,-0.3698199099549775,0.16480740370185093,-9.803290505252628,0.08000500250125063,0.02001000500250125,1.059989994997499,0,0,0,44.87
82967,-0.4398199099549775,0.08480740370185093,-9.813290505252628,0.05000500250125063,0.010010005002501252,0.8799899949974987,0,0,0,45.12
82977,-0.5598199099549774,-0.055192596298149085,-9.813290505252628,5.002501250625313e-06,0.04001000500250125,0.5699899949974987,0,0,0,45.25
82987,-0.6598199099549775,-0.12519259629814908,-9.813290505252628,-0.019994997498749376,0.04001000500250125,0.2899899949974987,0,0,0,45.12
82997,-0.6998199099549774,-0.09519259629814908,-9.813290505252628,-0.019994997498749376,0.03001000500250125,-1.0005002501250626e-05,0,0,0,45.06
83007,-0.7098199099549775,-0.11519259629814908,-9.813290505252628,5.002501250625313e-06,0.03001000500250125,-0.10001000500250126,0,0,0,45.0
83017,-0.5898199099549775,-0.15519259629814908,-9.813290505252628,5.002501250625313e-06,0.03001000500250125,0.09998999499749875,0,0,0,45.12
83027,-0.45981990995497746,-0.08519259629814908,-9.813290505252628,5.002501250625313e-06,0.02001000500250125,0.06998999499749875,0,0,0,45.12
83037,-0.4998199099549775,-0.025192596298149086,-9.803290505252628,0.010005002501250625,0.010010005002501252,-0.15001000500250125,0,0,0,45.25
83047,-0.5098199099549775,0.0048074037018509125,-9.803290505252628,0.05000500250125063,1.0005002501250626e-05,-0.48001000500250124,0,0,0,45.31
83057,-0.5698199099549774,-0.055192596298149085,-9.823290505252627,0.07000500250125063,1.0005002501250626e-05,-0.5100100050025013,0,0,0,45.06
83067,-0.7098199099549775,-0.08519259629814908,-9.813290505252628,0.04000500250125063,0.02001000500250125,-0.23001000500250127,0,0,0,45.12
83077,-0.6998199099549774,-0.06519259629814908,-9.823290505252627,5.002501250625313e-06,0.08001000500250126,-0.16001000500250126,0,0,0,45.12
83087,-0.7398199099549775,-0.015192596298149078,-9.813290505252628,5.002501250625313e-06,0.11001000500250126,-0.17001000500250127,0,0,0,45.12
83097,-0.7198199099549775,-0.04519259629814908,-9.813290505252628,5.002501250625313e-06,0.12001000500250125,-0.15001000500250125,0,0,0,44.93
83107,-0.7098199099549775,-0.07519259629814909,-9.813290505252628,0.060005002501250626,0.11001000500250126,-0.05001000500250125,0,0,0,45.0
83117,-0.7198199099549775,-0.10519259629814909,-9.823290505252627,0.10000500250125063,0.11001000500250126,0.03998999499749875,0,0,0,45.0
83127,-0.6998199099549774,-0.10519259629814909,-9.813290505252628,0.13000500250125063,0.17001000500250127,0.21998999499749874,0,0,0,45.0
83137,-0.4198199099549775,-0.055192596298149085,-9.823290505252627,0.15000500250125062,0.21001000500250125,0.5099899949974988,0,0,0,45.0
83147,-0.2198199099549775,0.06480740370185091,-9.833290505252627,0.12000500250125062,0.20001000500250127,0.49998999499749874,0,0,0,45.12
83157,-1.9798199099549776,0.04480740370185092,-9.823290505252627,0.10000500250125063,0.18001000500250125,-0.5000100050025013,0,0,0,45.25
83167,-1.4198199099549775,-0.19519259629814908,-9.863290505252627,-0.07999499749874937,0.5500100050025013,-0.8900100050025013,0,0,0,45.0
83177,0.4601800900450225,-0.06519259629814908,-9.833290505252627,-0.09999499749874938,0.8800100050025013,-0.39001000500250127,0,0,0,45.06
83187,0.02018009004502251,0.2048074037018509,-9.753290505252627,-0.029994997498749374,0.5500100050025013,0.14998999499749874,0,0,0,45.0
83197,-1.4298199099549775,-0.11519259629814908,-9.773290505252627,-0.12999499749874938,0.25001000500250126,0.27998999499749877,0,0,0,45.12
83207,-1.1998199099549776,-0.09519259629814908,-9.793290505252628,-0.22999499749874938,0.10001000500250126,0.25998999499749875,0,0,0,45.06
83217,-0.5498199099549775,-0.0051925962981490825,-9.803290505252628,-0.17999499749874937,0.04001000500250125,0.12998999499749875,0,0,0,45.31
83227,-0.06981990995497749,0.014807403701850921,-9.823290505252627,-0.09999499749874938,0.06001000500250125,0.01998999499749875,0,0,0,45.0
83237,0.06018009004502252,-0.0051925962981490825,-9.823290505252627,-0.08999499749874937,0.09001000500250125,-0.010010005002501252,0,0,0,44.87
83247,0.05018009004502251,-0.0051925962981490825,-9.813290505252628,-0.10999499749874937,0.11001000500250126,-0.010010005002501252,0,0,0,44.93
83257,0.02018009004502251,0.0048074037018509125,-9.803290505252628,-0.10999499749874937,0.12001000500250125,-1.0005002501250626e-05,0,0,0,45.12
83267,0.02018009004502251,0.014807403701850921,-9.813290505252628,-0.07999499749874937,0.11001000500250126,-1.0005002501250626e-05,0,0,0,44.87
83277,0.02018009004502251,-0.015192596298149078,-9.813290505252628,-0.029994997498749374,0.11001000500250126,-1.0005002501250626e-05,0,0,0,45.37
83287,0.030180090045022513,-0.015192596298149078,-9.823290505252627,-0.029994997498749374,0.11001000500250126,-1.0005002501250626e-05,0,0,0,45.0
83297,0.06018009004502252,0.024807403701850916,-9.823290505252627,5.002501250625313e-06,0.08001000500250126,-1.0005002501250626e-05,0,0,0,45.0
83307,0.06018009004502252,0.024807403701850916,-9.803290505252628,0.07000500250125063,0.02001000500250125,-1.0005002501250626e-05,0,0,0,44.75
83317,0.040180090045022515,0.0048074037018509125,-9.813290505252628,0.12000500250125062,-0.009989994997498749,-1.0005002501250626e-05,0,0,0,45.12
83327,0.02018009004502251,-0.025192596298149086,-9.833290505252627,0.07000500250125063,1.0005002501250626e-05,-1.0005002501250626e-05,0,0,0,45.12
83337,0.010180090045022513,-0.025192596298149086,-9.823290505252627,-0.009994997498749375,0.04001000500250125,-1.0005002501250626e-05,0,0,0,45.12
83347,0.02018009004502251,-0.015192596298149078,-9.803290505252628,-0.03999499749874937,0.06001000500250125,-1.0005002501250626e-05,0,0,0,45.0
83357,0.030180090045022513,-0.015192596298149078,-9.813290505252628,-0.05999499749874937,0.06001000500250125,-1.0005002501250626e-05,0,0,0,45.25
83367,0.030180090045022513,-0.0051925962981490825,-9.823290505252627,-0.03999499749874937,0.08001000500250126,-1.0005002501250626e-05,0,0,0,45.12
83377,0.030180090045022513,-0.0051925962981490825,-9.833290505252627,-0.06999499749874938,0.13001000500250126,-0.010010005002501252,0,0,0,45.12
83387,0.040180090045022515,0.024807403701850916,-9.813290505252628,-0.03999499749874937,0.14001000500250127,-0.010010005002501252,0,0,0,45.06
83397,0.040180090045022515,0.014807403701850921,-9.813290505252628,0.05000500250125063,0.12001000500250125,-0.02001000500250125,0,0,0,45.37
83407,0.030180090045022513,-0.025192596298149086,-9.843290505252627,0.030005002501250624,0.15001000500250125,-0.02001000500250125,0,0,0,45.12
83417,0.02018009004502251,0.0048074037018509125,-9.833290505252627,0.010005002501250625,0.22001000500250126,-0.05001000500250125,0,0,0,45.12
83427,0.1301800900450225,-0.025192596298149086,-9.783290505252628,0.07000500250125063,0.23001000500250127,-0.11001000500250126,0,0,0,45.12
83437,0.09018009004502252,-0.0051925962981490825,-9.783290505252628,0.27000500250125065,0.16001000500250126,-0.24001000500250125,0,0,0,45.0
83447,-0.009819909954977488,0.10480740370185092,-9.823290505252627,0.3700050025012506,0.24001000500250125,-0.22001000500250126,0,0,0,45.06
83457,0.07018009004502251,0.22480740370185093,-9.833290505252627,1.1200050025012507,0.10001000500250126,-0.13001000500250126,0,0,0,45.12
83467,0.030180090045022513,-0.32519259629814906,-9.783290505252628,0.6100050025012506,0.10001000500250126,-0.13001000500250126,0,0,0,45.25
83477,0.11018009004502252,-0.10519259629814909,-9.803290505252628,0.14000500250125064,0.06001000500250125,-0.04001000500250125,0,0,0,45.12
83487,0.08018009004502252,-0.04519259629814908,-9.813290505252628,-0.019994997498749376,0.03001000500250125,-1.0005002501250626e-05,0,0,0,45.0
83497,0.05018009004502251,-0.04519259629814908,-9.803290505252628,-0.009994997498749375,0.010010005002501252,-1.0005002501250626e-05,0,0,0,45.12
83507,0.05018009004502251,-0.025192596298149086,-9.803290505252628,5.002501250625313e-06,1.0005002501250626e-05,-1.0005002501250626e-05,0,0,0,44.93
83517,0.05018009004502251,-0.025192596298149086,-9.803290505252628,0.010005002501250625,1.0005002501250626e-05,-1.0005002501250626e-05,0,0,0,44.93
83527,0.040180090045022515,-0.03519259629814908,-9.813290505252628,0.010005002501250625,1.0005002501250626e-05,-1.0005002501250626e-05,0,0,0,45.06
83537,0.040180090045022515,-0.03519259629814908,-9.813290505252628,0.010005002501250625,1.0005002501250626e-05,-1.0005002501250626e-05,0,0,0,45.25
83547,0.05018009004502251,-0.025192596298149086,-9.813290505252628,5.002501250625313e-06,1.0005002501250626e-05,-1.0005002501250626e-05,0,0,0,45.12
83557,0.05018009004502251,-0.025192596298149086,-9.813290505252628,5.002501250625313e-06,1.0005002501250626e-05,-1.0005002501250626e-05,0,0,0,45.31
83567,0.06018009004502252,-0.025192596298149086,-9.803290505252628,5.002501250625313e-06,1.0005002501250626e-05,-1.0005002501250626e-05,0,0,0,45.25
83577,0.05018009004502251,-0.03519259629814908,-9.813290505252628,5.002501250625313e-06,1.0005002501250626e-05,-1.0005002501250626e-05,0,0,0,45.31
83587,0.05018009004502251,-0.03519259629814908,-9.813290505252628,5.002501250625313e-06,1.0005002501250626e-05,-1.0005002501250626e-05,0,0,0,45.06
83597,0.05018009004502251,-0.03519259629814908,-9.813290505252628,5.002501250625313e-06,1.0005002501250626e-05,-1.0005002501250626e-05,0,0,0,45.12
83607,0.05018009004502251,-0.03519259629814908,-9.823290505252627,5.002501250625313e-06,1.0005002501250626e-05,-1.0005002501250626e-05,0,0,0,45.0
83617,0.05018009004502251,-0.025192596298149086,-9.813290505252628,5.002501250625313e-06,1.0005002501250626e-05,-1.0005002501250626e-05,0,0,0,45.12
83627,0.05018009004502251,-0.03519259629814908,-9.813290505252628,0.010005002501250625,1.0005002501250626e-05,-1.0005002501250626e-05,0,0,0,45.12
83637,0.05018009004502251,-0.03519259629814908,-9.823290505252627,5.002501250625313e-06,1.0005002501250626e-05,-1.0005002501250626e-05,0,0,0,45.37
83647,0.06018009004502252,-0.04519259629814908,-9.823290505252627,5.002501250625313e-06,1.0005002501250626e-05,-1.0005002501250626e-05,0,0,0,45.25
83657,0.06018009004502252,-0.03519259629814908,-9.823290505252627,5.002501250625313e-06,1.0005002501250626e-05,-1.0005002501250626e-05,0,0,0,45.12
83667,0.05018009004502251,-0.03519259629814908,-9.823290505252627,5.002501250625313e-06,1.0005002501250626e-05,-1.0005002501250626e-05,0,0,0,45.0
83677,0.040180090045022515,-0.025192596298149086,-9.813290505252628,5.002501250625313e-06,1.0005002501250626e-05,-1.0005002501250626e-05,0,0,0,45.31
83687,0.05018009004502251,-0.025192596298149086,-9.803290505252628,5.002501250625313e-06,1.0005002501250626e-05,-1.0005002501250626e-05,0,0,0,45.0
83697,0.040180090045022515,-0.025192596298149086,-9.813290505252628,5.002501250625313e-06,1.0005002501250626e-05,-1.0005002501250626e-05,0,0,0,45.0
83707,0.05018009004502251,-0.03519259629814908,-9.803290505252628,5.002501250625313e-06,1.0005002501250626e-05,-1.0005002501250626e-05,0,0,0,45.43
83717,0.05018009004502251,-0.025192596298149086,-9.803290505252628,5.002501250625313e-06,1.0005002501250626e-05,-1.0005002501250626e-05,0,0,0,45.12
83727,0.05018009004502251,-0.025192596298149086,-9.813290505252628,5.002501250625313e-06,1.0005002501250626e-05,-1.0005002501250626e-05,0,0,0,45.0
83737,0.05018009004502251,-0.025192596298149086,-9.813290505252628,5.002501250625313e-06,1.0005002501250626e-05,-1.0005002501250626e-05,0,0,0,45.06
83747,0.06018009004502252,-0.025192596298149086,-9.813290505252628,5.002501250625313e-06,1.0005002501250626e-05,-1.0005002501250626e-05,0,0,0,45.12
