Timestamp,Accelerometer_X,Accelerometer_Y,Accelerometer_Z,Gyroscope_X,Gyroscope_Y,Gyroscope_Z,Magnetometer_X,Magnetometer_Y,Magnetometer_Z,Abs_Pressure,Temperature
75667,-0.007458729364682337,0.0009454727363681741,-9.806266993496747,5.002501250625313e-06,0.0,0.0,0,0,0,43.12
75672,-0.007458729364682337,-0.009054527263631824,-9.806266993496747,5.002501250625313e-06,0.0,0.0,0,0,0,43.25
75677,-0.007458729364682337,-0.009054527263631824,-9.816266993496747,5.002501250625313e-06,0.0,0.0,0,0,0,43.06
75682,-0.007458729364682337,-0.009054527263631824,-9.816266993496747,5.002501250625313e-06,0.0,0.0,0,0,0,43.25
75687,-0.007458729364682337,-0.009054527263631824,-9.816266993496747,5.002501250625313e-06,0.0,0.0,0,0,0,43.18
75692,-0.007458729364682337,0.0009454727363681741,-9.816266993496747,5.002501250625313e-06,0.0,0.0,0,0,0,43.12
75707,0.002541270635317658,0.0009454727363681741,-9.816266993496747,5.002501250625313e-06,0.0,0.0,0,0,0,43.37
75727,0.002541270635317658,0.0009454727363681741,-9.806266993496747,5.002501250625313e-06,0.0,0.0,0,0,0,43.18
75737,0.002541270635317658,0.0009454727363681741,-9.816266993496747,5.002501250625313e-06,0.0,0.0,0,0,0,43.06
75747,-0.007458729364682337,0.0009454727363681741,-9.826266993496747,5.002501250625313e-06,0.0,0.0,0,0,0,43.0
75757,-0.007458729364682337,0.0009454727363681741,-9.826266993496747,5.002501250625313e-06,0.0,0.0,0,0,0,43.31
75767,-0.007458729364682337,0.0009454727363681741,-9.816266993496747,5.002501250625313e-06,0.0,0.0,0,0,0,43.18
75777,-0.007458729364682337,0.0009454727363681741,-9.806266993496747,5.002501250625313e-06,0.0,0.0,0,0,0,43.31
75787,-0.007458729364682337,-0.009054527263631824,-9.816266993496747,5.002501250625313e-06,0.0,0.0,0,0,0,43.18
75797,-0.007458729364682337,-0.009054527263631824,-9.826266993496747,5.002501250625313e-06,0.0,0.0,0,0,0,43.25
75807,0.002541270635317658,-0.009054527263631824,-9.826266993496747,5.002501250625313e-06,0.0,0.0,0,0,0,43.12
75817,0.002541270635317658,0.0009454727363681741,-9.816266993496747,5.002501250625313e-06,0.0,0.0,0,0,0,43.06
75827,0.002541270635317658,0.0009454727363681741,-9.816266993496747,5.002501250625313e-06,0.0,0.0,0,0,0,43.43
75837,-0.007458729364682337,0.0009454727363681741,-9.816266993496747,5.002501250625313e-06,0.0,0.0,0,0,0,43.18
75847,-0.007458729364682337,0.0009454727363681741,-9.816266993496747,5.002501250625313e-06,0.0,0.0,0,0,0,43.31
75857,0.002541270635317658,0.0009454727363681741,-9.816266993496747,5.002501250625313e-06,0.0,0.0,0,0,0,43.18
75867,0.002541270635317658,0.0009454727363681741,-9.806266993496747,5.002501250625313e-06,0.0,0.0,0,0,0,43.12
75877,0.002541270635317658,0.0009454727363681741,-9.806266993496747,5.002501250625313e-06,0.0,0.0,0,0,0,43.25
75887,-0.007458729364682337,0.0009454727363681741,-9.816266993496747,5.002501250625313e-06,0.0,0.0,0,0,0,43.25
75897,-0.007458729364682337,0.010945472736368176,-9.806266993496747,5.002501250625313e-06,0.0,0.0,0,0,0,43.12
75907,-0.007458729364682337,0.010945472736368176,-9.816266993496747,5.002501250625313e-06,0.0,0.0,0,0,0,43.25
75917,0.002541270635317658,0.0009454727363681741,-9.816266993496747,5.002501250625313e-06,0.0,0.0,0,0,0,43.06
75927,-0.007458729364682337,0.0009454727363681741,-9.816266993496747,5.002501250625313e-06,0.0,0.0,0,0,0,43.18
75937,0.002541270635317658,0.0009454727363681741,-9.816266993496747,5.002501250625313e-06,0.0,0.0,0,0,0,43.12
75947,0.002541270635317658,0.0009454727363681741,-9.806266993496747,5.002501250625313e-06,0.0,0.0,0,0,0,43.25
75957,0.002541270635317658,0.0009454727363681741,-9.816266993496747,5.002501250625313e-06,0.0,0.0,0,0,0,43.31
75967,0.002541270635317658,0.0009454727363681741,-9.816266993496747,5.002501250625313e-06,0.0,0.0,0,0,0,43.43
75977,0.002541270635317658,0.0009454727363681741,-9.816266993496747,5.002501250625313e-06,0.0,0.0,0,0,0,43.06
75987,0.002541270635317658,0.0009454727363681741,-9.816266993496747,5.002501250625313e-06,0.0,0.0,0,0,0,43.06
75997,-0.007458729364682337,0.0009454727363681741,-9.816266993496747,5.002501250625313e-06,0.0,0.0,0,0,0,43.06
76007,-0.007458729364682337,-0.009054527263631824,-9.816266993496747,5.002501250625313e-06,0.0,0.0,0,0,0,43.25
76017,0.002541270635317658,-0.009054527263631824,-9.806266993496747,5.002501250625313e-06,0.0,0.0,0,0,0,43.06
76027,0.002541270635317658,0.0009454727363681741,-9.806266993496747,5.002501250625313e-06,0.0,0.0,0,0,0,43.37
76037,0.002541270635317658,0.0009454727363681741,-9.816266993496747,5.002501250625313e-06,0.0,0.0,0,0,0,43.31
76047,-0.007458729364682337,0.0009454727363681741,-9.816266993496747,5.002501250625313e-06,0.0,0.0,0,0,0,43.31
76057,-0.007458729364682337,-0.009054527263631824,-9.806266993496747,5.002501250625313e-06,0.0,0.0,0,0,0,43.06
76067,-0.007458729364682337,0.0009454727363681741,-9.816266993496747,5.002501250625313e-06,0.0,0.0,0,0,0,43.25
76077,0.002541270635317658,0.0009454727363681741,-9.816266993496747,5.002501250625313e-06,0.0,0.0,0,0,0,43.12
76087,0.002541270635317658,0.0009454727363681741,-9.816266993496747,5.002501250625313e-06,0.0,0.0,0,0,0,43.25
76097,0.002541270635317658,-0.009054527263631824,-9.806266993496747,5.002501250625313e-06,0.0,0.0,0,0,0,43.43
76107,0.002541270635317658,-0.009054527263631824,-9.806266993496747,5.002501250625313e-06,0.0,0.0,0,0,0,43.06
76117,-0.007458729364682337,0.0009454727363681741,-9.816266993496747,5.002501250625313e-06,0.0,0.0,0,0,0,43.31
76127,0.002541270635317658,0.010945472736368176,-9.806266993496747,5.002501250625313e-06,0.0,0.0,0,0,0,43.25
76137,0.002541270635317658,0.0009454727363681741,-9.816266993496747,5.002501250625313e-06,0.0,0.0,0,0,0,43.18
76147,0.002541270635317658,0.0009454727363681741,-9.816266993496747,5.002501250625313e-06,0.0,0.0,0,0,0,43.18
76157,0.002541270635317658,0.0009454727363681741,-9.816266993496747,5.002501250625313e-06,0.0,0.0,0,0,0,43.18
76167,-0.007458729364682337,-0.009054527263631824,-9.816266993496747,5.002501250625313e-06,0.0,0.0,0,0,0,43.18
76177,0.002541270635317658,0.0009454727363681741,-9.806266993496747,5.002501250625313e-06,0.0,0.0,0,0,0,43.25
76187,-0.007458729364682337,0.0009454727363681741,-9.806266993496747,5.002501250625313e-06,0.0,0.0,0,0,0,43.18
76197,-0.007458729364682337,0.0009454727363681741,-9.806266993496747,5.002501250625313e-06,0.0,0.0,0,0,0,43.31
76207,0.002541270635317658,0.0009454727363681741,-9.806266993496747,5.002501250625313e-06,0.0,0.0,0,0,0,43.12
76217,0.002541270635317658,-0.009054527263631824,-9.806266993496747,5.002501250625313e-06,0.0,0.0,0,0,0,43.25
76227,-0.007458729364682337,-0.009054527263631824,-9.816266993496747,5.002501250625313e-06,0.0,0.0,0,0,0,43.06
76237,0.002541270635317658,0.0009454727363681741,-9.816266993496747,5.002501250625313e-06,0.0,0.0,0,0,0,43.12
76247,0.002541270635317658,0.0009454727363681741,-9.816266993496747,5.002501250625313e-06,0.0,0.0,0,0,0,43.31
76257,0.002541270635317658,0.0009454727363681741,-9.816266993496747,5.002501250625313e-06,0.0,0.0,0,0,0,43.12
76267,0.002541270635317658,0.0009454727363681741,-9.816266993496747,5.002501250625313e-06,0.0,0.0,0,0,0,43.31
76277,0.002541270635317658,0.0009454727363681741,-9.826266993496747,5.002501250625313e-06,0.0,0.0,0,0,0,43.5
76287,-0.007458729364682337,0.0009454727363681741,-9.816266993496747,5.002501250625313e-06,0.0,0.0,0,0,0,43.06
76297,0.002541270635317658,0.0009454727363681741,-9.816266993496747,5.002501250625313e-06,0.0,0.0,0,0,0,43.06
76307,0.002541270635317658,0.0009454727363681741,-9.816266993496747,5.002501250625313e-06,0.0,0.0,0,0,0,43.25
76317,0.002541270635317658,0.0009454727363681741,-9.806266993496747,5.002501250625313e-06,0.0,0.0,0,0,0,43.12
76327,0.002541270635317658,0.010945472736368176,-9.806266993496747,5.002501250625313e-06,0.0,0.0,0,0,0,43.25
76337,0.002541270635317658,0.0009454727363681741,-9.816266993496747,5.002501250625313e-06,0.0,0.0,0,0,0,43.12
76347,0.002541270635317658,0.0009454727363681741,-9.806266993496747,5.002501250625313e-06,0.0,0.0,0,0,0,43.25
76357,-0.007458729364682337,-0.009054527263631824,-9.806266993496747,5.002501250625313e-06,0.0,0.0,0,0,0,43.18
76367,-0.007458729364682337,0.0009454727363681741,-9.796266993496747,5.002501250625313e-06,0.0,0.0,0,0,0,43.18
76377,0.002541270635317658,-0.009054527263631824,-9.806266993496747,5.002501250625313e-06,0.0,0.0,0,0,0,43.18
76387,-0.007458729364682337,0.0009454727363681741,-9.816266993496747,5.002501250625313e-06,0.0,0.0,0,0,0,43.18
76397,0.002541270635317658,-0.009054527263631824,-9.806266993496747,5.002501250625313e-06,0.0,0.0,0,0,0,43.31
76407,0.002541270635317658,-0.009054527263631824,-9.816266993496747,5.002501250625313e-06,0.0,0.0,0,0,0,43.06
76417,0.002541270635317658,0.0009454727363681741,-9.806266993496747,5.002501250625313e-06,0.0,0.0,0,0,0,43.12
76427,-0.007458729364682337,0.0009454727363681741,-9.816266993496747,5.002501250625313e-06,0.0,0.0,0,0,0,43.25
76437,-0.007458729364682337,0.0009454727363681741,-9.816266993496747,5.002501250625313e-06,0.0,0.0,0,0,0,43.25
76447,-0.007458729364682337,0.0009454727363681741,-9.826266993496747,5.002501250625313e-06,0.0,0.0,0,0,0,43.12
76457,-0.007458729364682337,-0.009054527263631824,-9.816266993496747,5.002501250625313e-06,0.0,0.0,0,0,0,43.06
76467,0.002541270635317658,-0.009054527263631824,-9.816266993496747,5.002501250625313e-06,0.0,0.0,0,0,0,43.06
76477,0.002541270635317658,-0.009054527263631824,-9.816266993496747,5.002501250625313e-06,0.0,0.0,0,0,0,43.31
76487,0.002541270635317658,-0.009054527263631824,-9.816266993496747,5.002501250625313e-06,0.0,0.0,0,0,0,43.37
76497,0.002541270635317658,0.0009454727363681741,-9.816266993496747,5.002501250625313e-06,0.0,0.0,0,0,0,43.25
76507,0.002541270635317658,0.0009454727363681741,-9.806266993496747,5.002501250625313e-06,0.0,0.0,0,0,0,43.06
76517,0.002541270635317658,0.0009454727363681741,-9.806266993496747,5.002501250625313e-06,0.0,0.0,0,0,0,43.37
76527,0.002541270635317658,-0.009054527263631824,-9.806266993496747,5.002501250625313e-06,0.0,0.0,0,0,0,43.37
76537,0.002541270635317658,-0.009054527263631824,-9.806266993496747,5.002501250625313e-06,0.0,0.0,0,0,0,43.25
76547,0.012541270635317653,-0.009054527263631824,-9.806266993496747,5.002501250625313e-06,0.0,0.0,0,0,0,43.31
76557,0.012541270635317653,-0.009054527263631824,-9.806266993496747,5.002501250625313e-06,0.0,0.0,0,0,0,43.37
76567,0.012541270635317653,0.0009454727363681741,-9.816266993496747,5.002501250625313e-06,0.0,0.0,0,0,0,43.25
76577,0.002541270635317658,0.0009454727363681741,-9.816266993496747,5.002501250625313e-06,0.0,0.0,0,0,0,43.18
76587,-0.007458729364682337,0.0009454727363681741,-9.806266993496747,5.002501250625313e-06,0.0,0.0,0,0,0,43.43
76597,-0.007458729364682337,0.0009454727363681741,-9.806266993496747,5.002501250625313e-06,0.0,0.0,0,0,0,43.18
76607,-0.007458729364682337,0.0009454727363681741,-9.816266993496747,5.002501250625313e-06,0.0,0.0,0,0,0,43.37
76617,0.002541270635317658,0.0009454727363681741,-9.816266993496747,5.002501250625313e-06,0.0,0.0,0,0,0,43.25
76627,0.002541270635317658,-0.009054527263631824,-9.816266993496747,5.002501250625313e-06,0.0,0.0,0,0,0,43.18
76637,0.002541270635317658,-0.019054527263631826,-9.816266993496747,5.002501250625313e-06,0.0,0.0,0,0,0,43.12
76647,-0.007458729364682337,-0.009054527263631824,-9.816266993496747,5.002501250625313e-06,0.0,0.0,0,0,0,43.5
76657,0.002541270635317658,0.0009454727363681741,-9.816266993496747,5.002501250625313e-06,0.0,0.0,0,0,0,43.12
76667,0.002541270635317658,-0.009054527263631824,-9.816266993496747,5.002501250625313e-06,0.0,0.0,0,0,0,43.18
76677,-0.007458729364682337,0.0009454727363681741,-9.816266993496747,5.002501250625313e-06,0.0,0.0,0,0,0,43.18
76687,-0.007458729364682337,0.0009454727363681741,-9.816266993496747,5.002501250625313e-06,0.0,0.0,0,0,0,43.18
76697,0.002541270635317658,0.0009454727363681741,-9.816266993496747,5.002501250625313e-06,0.0,0.0,0,0,0,43.31
76707,0.002541270635317658,0.0009454727363681741,-9.816266993496747,5.002501250625313e-06,0.0,0.0,0,0,0,43.12
76717,0.002541270635317658,0.0009454727363681741,-9.806266993496747,5.002501250625313e-06,0.0,0.0,0,0,0,43.31
76727,-0.007458729364682337,0.0009454727363681741,-9.816266993496747,5.002501250625313e-06,0.0,0.0,0,0,0,43.12
76737,-0.007458729364682337,-0.009054527263631824,-9.816266993496747,5.002501250625313e-06,0.0,0.0,0,0,0,43.18
76747,-0.007458729364682337,0.0009454727363681741,-9.816266993496747,5.002501250625313e-06,0.0,0.0,0,0,0,43.31
76757,0.002541270635317658,0.0009454727363681741,-9.806266993496747,5.002501250625313e-06,0.0,0.0,0,0,0,43.06
76767,-0.007458729364682337,-0.009054527263631824,-9.806266993496747,5.002501250625313e-06,0.0,0.0,0,0,0,43.31
76777,0.002541270635317658,0.0009454727363681741,-9.806266993496747,5.002501250625313e-06,0.0,0.0,0,0,0,43.12
76787,0.012541270635317653,0.0009454727363681741,-9.816266993496747,5.002501250625313e-06,0.0,0.0,0,0,0,43.31
76797,0.002541270635317658,0.0009454727363681741,-9.816266993496747,5.002501250625313e-06,0.0,0.0,0,0,0,43.31
76807,0.002541270635317658,0.0009454727363681741,-9.816266993496747,5.002501250625313e-06,0.0,0.0,0,0,0,43.5
76817,-0.007458729364682337,0.0009454727363681741,-9.806266993496747,5.002501250625313e-06,0.0,0.0,0,0,0,43.12
76827,-0.007458729364682337,0.0009454727363681741,-9.816266993496747,5.002501250625313e-06,0.0,0.0,0,0,0,43.5
76837,-0.007458729364682337,0.0009454727363681741,-9.816266993496747,5.002501250625313e-06,0.0,0.0,0,0,0,43.25
76847,-0.007458729364682337,0.0009454727363681741,-9.816266993496747,5.002501250625313e-06,0.0,0.0,0,0,0,43.25
76857,-0.007458729364682337,0.0009454727363681741,-9.816266993496747,5.002501250625313e-06,0.0,0.0,0,0,0,43.06
76867,-0.007458729364682337,0.010945472736368176,-9.806266993496747,5.002501250625313e-06,0.0,0.0,0,0,0,43.06
76877,0.002541270635317658,0.010945472736368176,-9.806266993496747,5.002501250625313e-06,0.0,0.0,0,0,0,43.06
76887,0.002541270635317658,0.010945472736368176,-9.806266993496747,5.002501250625313e-06,0.0,0.0,0,0,0,43.25
76897,0.002541270635317658,0.0009454727363681741,-9.806266993496747,5.002501250625313e-06,0.0,0.0,0,0,0,43.25
76907,0.002541270635317658,0.0009454727363681741,-9.806266993496747,5.002501250625313e-06,0.0,0.0,0,0,0,43.12
76917,0.002541270635317658,-0.009054527263631824,-9.816266993496747,5.002501250625313e-06,0.0,0.0,0,0,0,43.5
76927,0.002541270635317658,0.0009454727363681741,-9.816266993496747,5.002501250625313e-06,0.0,0.0,0,0,0,43.06
76937,0.002541270635317658,-0.009054527263631824,-9.816266993496747,5.002501250625313e-06,0.0,0.0,0,0,0,43.31
76947,0.002541270635317658,-0.009054527263631824,-9.816266993496747,5.002501250625313e-06,0.0,0.0,0,0,0,43.25
76957,-0.007458729364682337,0.0009454727363681741,-9.806266993496747,5.002501250625313e-06,0.0,0.0,0,0,0,43.18
76967,-0.007458729364682337,0.0009454727363681741,-9.816266993496747,5.002501250625313e-06,0.0,0.0,0,0,0,43.18
76977,0.002541270635317658,0.0009454727363681741,-9.816266993496747,5.002501250625313e-06,0.0,0.0,0,0,0,43.5
76987,0.002541270635317658,0.010945472736368176,-9.806266993496747,5.002501250625313e-06,0.0,0.0,0,0,0,43.25
76997,0.002541270635317658,0.010945472736368176,-9.806266993496747,5.002501250625313e-06,0.0,0.0,0,0,0,43.18
77007,0.002541270635317658,0.0009454727363681741,-9.816266993496747,5.002501250625313e-06,0.0,0.0,0,0,0,43.37
77017,0.002541270635317658,0.0009454727363681741,-9.816266993496747,5.002501250625313e-06,0.0,0.0,0,0,0,43.06
77027,0.002541270635317658,0.0009454727363681741,-9.806266993496747,5.002501250625313e-06,0.0,0.0,0,0,0,43.18
77037,0.002541270635317658,0.0009454727363681741,-9.806266993496747,5.002501250625313e-06,0.0,0.0,0,0,0,43.18
77047,-0.007458729364682337,0.0009454727363681741,-9.806266993496747,5.002501250625313e-06,0.0,0.0,0,0,0,43.37
77057,-0.007458729364682337,0.0009454727363681741,-9.806266993496747,5.002501250625313e-06,0.0,0.0,0,0,0,43.18
77067,0.002541270635317658,0.0009454727363681741,-9.816266993496747,5.002501250625313e-06,0.0,0.0,0,0,0,43.37
77077,0.002541270635317658,-0.009054527263631824,-9.816266993496747,5.002501250625313e-06,0.0,0.0,0,0,0,43.25
77087,-0.007458729364682337,0.0009454727363681741,-9.806266993496747,5.002501250625313e-06,0.0,0.0,0,0,0,43.18
77097,-0.007458729364682337,0.0009454727363681741,-9.806266993496747,5.002501250625313e-06,0.0,0.0,0,0,0,43.06
77107,-0.007458729364682337,0.0009454727363681741,-9.816266993496747,5.002501250625313e-06,0.0,0.0,0,0,0,43.37
77117,-0.007458729364682337,-0.009054527263631824,-9.826266993496747,5.002501250625313e-06,0.0,0.0,0,0,0,43.37
77127,-0.007458729364682337,-0.009054527263631824,-9.816266993496747,5.002501250625313e-06,0.0,0.0,0,0,0,43.37
77137,-0.007458729364682337,-0.009054527263631824,-9.816266993496747,5.002501250625313e-06,0.0,0.0,0,0,0,43.06
77147,-0.007458729364682337,0.0009454727363681741,-9.816266993496747,5.002501250625313e-06,0.0,0.0,0,0,0,43.12
77157,0.002541270635317658,0.0009454727363681741,-9.816266993496747,5.002501250625313e-06,0.0,0.0,0,0,0,43.06
77167,0.002541270635317658,0.0009454727363681741,-9.816266993496747,5.002501250625313e-06,0.0,0.0,0,0,0,43.06
77177,-0.007458729364682337,0.010945472736368176,-9.816266993496747,5.002501250625313e-06,0.0,0.0,0,0,0,43.18
77187,0.002541270635317658,0.0009454727363681741,-9.816266993496747,5.002501250625313e-06,0.0,0.0,0,0,0,43.12
77197,0.002541270635317658,-0.009054527263631824,-9.806266993496747,5.002501250625313e-06,0.0,0.0,0,0,0,43.25
77207,0.002541270635317658,-0.009054527263631824,-9.816266993496747,5.002501250625313e-06,0.0,0.0,0,0,0,43.18
77217,-0.007458729364682337,-0.009054527263631824,-9.816266993496747,5.002501250625313e-06,0.0,0.0,0,0,0,43.37
77227,-0.007458729364682337,0.0009454727363681741,-9.816266993496747,5.002501250625313e-06,0.0,0.0,0,0,0,43.06
77237,0.002541270635317658,0.0009454727363681741,-9.816266993496747,5.002501250625313e-06,0.0,0.0,0,0,0,43.18
77247,0.002541270635317658,0.0009454727363681741,-9.816266993496747,5.002501250625313e-06,0.0,0.0,0,0,0,43.25
77257,0.002541270635317658,0.010945472736368176,-9.816266993496747,5.002501250625313e-06,0.0,0.0,0,0,0,43.18
77267,0.012541270635317653,0.010945472736368176,-9.816266993496747,5.002501250625313e-06,0.0,0.0,0,0,0,43.25
77277,0.012541270635317653,0.010945472736368176,-9.826266993496747,5.002501250625313e-06,0.0,0.0,0,0,0,43.12
77287,0.002541270635317658,0.010945472736368176,-9.826266993496747,5.002501250625313e-06,0.0,0.0,0,0,0,43.31
77297,0.002541270635317658,-0.009054527263631824,-9.826266993496747,5.002501250625313e-06,0.0,0.0,0,0,0,43.12
77307,-0.007458729364682337,-0.009054527263631824,-9.816266993496747,5.002501250625313e-06,0.0,0.0,0,0,0,43.18
77317,0.002541270635317658,-0.019054527263631826,-9.816266993496747,5.002501250625313e-06,0.0,0.0,0,0,0,43.25
77327,0.002541270635317658,-0.009054527263631824,-9.816266993496747,5.002501250625313e-06,0.0,0.0,0,0,0,43.12
77337,0.002541270635317658,-0.009054527263631824,-9.806266993496747,5.002501250625313e-06,0.0,0.0,0,0,0,43.25
77347,-0.007458729364682337,-0.009054527263631824,-9.806266993496747,5.002501250625313e-06,0.0,0.0,0,0,0,43.06
77357,0.002541270635317658,0.0009454727363681741,-9.806266993496747,5.002501250625313e-06,0.0,0.0,0,0,0,43.18
77367,-0.007458729364682337,0.0009454727363681741,-9.816266993496747,5.002501250625313e-06,0.0,0.0,0,0,0,43.37
77377,0.002541270635317658,-0.009054527263631824,-9.806266993496747,5.002501250625313e-06,0.0,0.0,0,0,0,43.31
77387,0.002541270635317658,-0.009054527263631824,-9.806266993496747,5.002501250625313e-06,0.0,0.0,0,0,0,43.25
77397,-0.007458729364682337,0.0009454727363681741,-9.816266993496747,5.002501250625313e-06,0.0,0.0,0,0,0,43.18
77407,0.002541270635317658,-0.009054527263631824,-9.806266993496747,5.002501250625313e-06,0.0,0.0,0,0,0,43.12
77417,0.002541270635317658,0.0009454727363681741,-9.816266993496747,5.002501250625313e-06,0.0,0.0,0,0,0,43.5
77427,0.012541270635317653,-0.009054527263631824,-9.816266993496747,5.002501250625313e-06,0.0,0.0,0,0,0,43.31
77437,0.002541270635317658,0.0009454727363681741,-9.816266993496747,5.002501250625313e-06,0.0,0.0,0,0,0,43.12
77447,-0.007458729364682337,0.010945472736368176,-9.806266993496747,5.002501250625313e-06,0.0,0.0,0,0,0,43.43
77457,0.002541270635317658,0.010945472736368176,-9.806266993496747,5.002501250625313e-06,0.0,0.0,0,0,0,43.25
77467,-0.007458729364682337,0.0009454727363681741,-9.806266993496747,5.002501250625313e-06,0.0,0.0,0,0,0,43.37
77477,-0.007458729364682337,0.0009454727363681741,-9.806266993496747,5.002501250625313e-06,0.0,0.0,0,0,0,43.12
77487,-0.007458729364682337,0.0009454727363681741,-9.816266993496747,5.002501250625313e-06,0.0,0.0,0,0,0,43.06
77497,0.002541270635317658,0.0009454727363681741,-9.806266993496747,5.002501250625313e-06,0.0,0.0,0,0,0,43.25
77507,0.002541270635317658,0.0009454727363681741,-9.816266993496747,5.002501250625313e-06,0.0,0.0,0,0,0,43.18
77517,0.002541270635317658,0.0009454727363681741,-9.806266993496747,5.002501250625313e-06,0.0,0.0,0,0,0,43.25
77527,0.002541270635317658,0.0009454727363681741,-9.816266993496747,5.002501250625313e-06,0.0,0.0,0,0,0,43.18
77537,0.002541270635317658,0.0009454727363681741,-9.816266993496747,5.002501250625313e-06,0.0,0.0,0,0,0,43.06
77547,0.002541270635317658,0.0009454727363681741,-9.816266993496747,5.002501250625313e-06,0.0,0.0,0,0,0,43.25
77557,-0.007458729364682337,0.0009454727363681741,-9.806266993496747,5.002501250625313e-06,0.0,0.0,0,0,0,43.31
77567,0.002541270635317658,0.0009454727363681741,-9.806266993496747,5.002501250625313e-06,0.0,0.0,0,0,0,43.25
77577,0.002541270635317658,0.0009454727363681741,-9.816266993496747,5.002501250625313e-06,0.0,0.0,0,0,0,43.18
77587,-0.007458729364682337,0.0009454727363681741,-9.816266993496747,5.002501250625313e-06,0.0,0.0,0,0,0,43.06
77597,-0.007458729364682337,0.0009454727363681741,-9.816266993496747,5.002501250625313e-06,0.0,0.0,0,0,0,43.12
77607,0.002541270635317658,0.010945472736368176,-9.816266993496747,5.002501250625313e-06,0.0,0.0,0,0,0,43.06
77617,-0.007458729364682337,0.0009454727363681741,-9.816266993496747,5.002501250625313e-06,0.0,0.0,0,0,0,43.12
77627,-0.007458729364682337,0.0009454727363681741,-9.816266993496747,5.002501250625313e-06,0.0,0.0,0,0,0,43.31
77637,0.012541270635317653,-0.009054527263631824,-9.816266993496747,5.002501250625313e-06,0.0,0.0,0,0,0,43.18
77647,0.002541270635317658,0.0009454727363681741,-9.816266993496747,5.002501250625313e-06,0.0,0.0,0,0,0,43.25
77657,0.002541270635317658,0.0009454727363681741,-9.826266993496747,5.002501250625313e-06,0.0,0.0,0,0,0,43.06
77667,0.002541270635317658,-0.009054527263631824,-9.826266993496747,5.002501250625313e-06,0.0,0.0,0,0,0,43.12
77677,-0.007458729364682337,-0.009054527263631824,-9.816266993496747,5.002501250625313e-06,0.0,0.0,0,0,0,43.06
77687,0.002541270635317658,-0.009054527263631824,-9.816266993496747,5.002501250625313e-06,0.0,0.0,0,0,0,43.37
77697,0.002541270635317658,-0.009054527263631824,-9.816266993496747,5.002501250625313e-06,0.0,0.0,0,0,0,43.12
77707,0.002541270635317658,0.0009454727363681741,-9.816266993496747,5.002501250625313e-06,0.0,0.0,0,0,0,43.5
77717,0.002541270635317658,0.010945472736368176,-9.816266993496747,5.002501250625313e-06,0.0,0.0,0,0,0,43.31
77727,0.002541270635317658,0.0009454727363681741,-9.816266993496747,5.002501250625313e-06,0.0,0.0,0,0,0,43.06
77737,0.012541270635317653,0.0009454727363681741,-9.816266993496747,5.002501250625313e-06,0.0,0.0,0,0,0,43.25
77747,0.002541270635317658,0.0009454727363681741,-9.816266993496747,5.002501250625313e-06,0.0,0.0,0,0,0,43.0
77757,0.002541270635317658,0.0009454727363681741,-9.806266993496747,5.002501250625313e-06,0.0,0.0,0,0,0,43.18
77767,0.002541270635317658,0.010945472736368176,-9.806266993496747,5.002501250625313e-06,0.0,0.0,0,0,0,43.06
77777,0.002541270635317658,0.0009454727363681741,-9.826266993496747,5.002501250625313e-06,0.0,0.0,0,0,0,43.06
77787,0.002541270635317658,-0.009054527263631824,-9.826266993496747,5.002501250625313e-06,0.0,0.0,0,0,0,43.12
77797,0.012541270635317653,0.0009454727363681741,-9.816266993496747,5.002501250625313e-06,0.0,0.0,0,0,0,43.31
77807,0.002541270635317658,0.0009454727363681741,-9.806266993496747,5.002501250625313e-06,0.0,0.0,0,0,0,43.06
77817,0.002541270635317658,0.0009454727363681741,-9.816266993496747,5.002501250625313e-06,0.0,0.0,0,0,0,43.18
77827,0.002541270635317658,0.0009454727363681741,-9.816266993496747,5.002501250625313e-06,0.0,0.0,0,0,0,43.18
77837,0.002541270635317658,-0.009054527263631824,-9.816266993496747,5.002501250625313e-06,0.0,0.0,0,0,0,43.18
77847,0.002541270635317658,0.0009454727363681741,-9.816266993496747,5.002501250625313e-06,0.0,0.0,0,0,0,43.18
77857,0.002541270635317658,-0.009054527263631824,-9.816266993496747,5.002501250625313e-06,0.0,0.0,0,0,0,43.31
77867,0.002541270635317658,-0.009054527263631824,-9.806266993496747,5.002501250625313e-06,0.0,0.0,0,0,0,43.18
77877,0.002541270635317658,0.0009454727363681741,-9.816266993496747,5.002501250625313e-06,0.0,0.0,0,0,0,43.25
77887,-0.007458729364682337,0.010945472736368176,-9.816266993496747,5.002501250625313e-06,0.0,0.0,0,0,0,43.25
77897,0.002541270635317658,0.010945472736368176,-9.806266993496747,5.002501250625313e-06,0.0,0.0,0,0,0,43.18
77907,0.002541270635317658,0.0009454727363681741,-9.816266993496747,5.002501250625313e-06,0.0,0.0,0,0,0,43.18
77917,0.002541270635317658,0.0009454727363681741,-9.816266993496747,5.002501250625313e-06,0.0,0.0,0,0,0,43.62
77927,-0.007458729364682337,0.0009454727363681741,-9.816266993496747,5.002501250625313e-06,0.0,0.0,0,0,0,43.12
77937,-0.007458729364682337,0.0009454727363681741,-9.816266993496747,5.002501250625313e-06,0.0,0.0,0,0,0,43.06
77947,-0.007458729364682337,0.0009454727363681741,-9.816266993496747,5.002501250625313e-06,0.0,0.0,0,0,0,43.06
77957,0.002541270635317658,0.010945472736368176,-9.806266993496747,5.002501250625313e-06,0.0,0.0,0,0,0,43.31
77967,0.002541270635317658,0.010945472736368176,-9.816266993496747,5.002501250625313e-06,0.0,0.0,0,0,0,43.18
77977,-0.007458729364682337,0.0009454727363681741,-9.816266993496747,5.002501250625313e-06,0.0,0.0,0,0,0,43.06
77987,-0.007458729364682337,0.0009454727363681741,-9.806266993496747,5.002501250625313e-06,0.0,0.0,0,0,0,43.06
77997,0.002541270635317658,0.0009454727363681741,-9.806266993496747,5.002501250625313e-06,0.0,0.0,0,0,0,43.25
78007,0.002541270635317658,0.0009454727363681741,-9.816266993496747,5.002501250625313e-06,0.0,0.0,0,0,0,43.37
78017,0.002541270635317658,-0.009054527263631824,-9.806266993496747,5.002501250625313e-06,0.0,0.0,0,0,0,43.18
78027,0.002541270635317658,-0.009054527263631824,-9.796266993496747,5.002501250625313e-06,0.0,0.0,0,0,0,43.25
78037,0.002541270635317658,0.0009454727363681741,-9.796266993496747,5.002501250625313e-06,0.0,0.0,0,0,0,43.25
78047,-0.007458729364682337,0.010945472736368176,-9.806266993496747,5.002501250625313e-06,0.0,0.0,0,0,0,42.93
78057,0.002541270635317658,0.0009454727363681741,-9.816266993496747,5.002501250625313e-06,0.0,0.0,0,0,0,43.25
78067,0.002541270635317658,0.0009454727363681741,-9.816266993496747,5.002501250625313e-06,0.0,0.0,0,0,0,43.31
78077,0.002541270635317658,0.0009454727363681741,-9.806266993496747,5.002501250625313e-06,0.0,0.0,0,0,0,43.18
78087,0.002541270635317658,0.0009454727363681741,-9.816266993496747,5.002501250625313e-06,0.0,0.0,0,0,0,43.12
78097,0.002541270635317658,0.0009454727363681741,-9.806266993496747,5.002501250625313e-06,0.0,0.0,0,0,0,43.12
78107,0.002541270635317658,0.0009454727363681741,-9.816266993496747,5.002501250625313e-06,0.0,0.0,0,0,0,43.25
78117,-0.007458729364682337,-0.009054527263631824,-9.826266993496747,5.002501250625313e-06,0.0,0.0,0,0,0,43.18
78127,0.002541270635317658,-0.009054527263631824,-9.816266993496747,5.002501250625313e-06,0.0,0.0,0,0,0,43.12
78137,0.002541270635317658,0.0009454727363681741,-9.816266993496747,5.002501250625313e-06,0.0,0.0,0,0,0,43.37
78147,-0.007458729364682337,0.0009454727363681741,-9.806266993496747,5.002501250625313e-06,0.0,0.0,0,0,0,43.25
78157,-0.007458729364682337,0.010945472736368176,-9.806266993496747,5.002501250625313e-06,0.0,0.0,0,0,0,43.06
78167,0.002541270635317658,0.010945472736368176,-9.806266993496747,5.002501250625313e-06,0.0,0.0,0,0,0,43.37
78177,0.002541270635317658,0.010945472736368176,-9.816266993496747,5.002501250625313e-06,0.0,0.0,0,0,0,43.06
78187,-0.007458729364682337,0.0009454727363681741,-9.816266993496747,5.002501250625313e-06,0.0,0.0,0,0,0,43.18
78197,-0.007458729364682337,-0.009054527263631824,-9.816266993496747,5.002501250625313e-06,0.0,0.0,0,0,0,43.31
78207,-0.007458729364682337,-0.009054527263631824,-9.806266993496747,5.002501250625313e-06,0.0,0.0,0,0,0,43.18
78217,-0.007458729364682337,0.0009454727363681741,-9.816266993496747,5.002501250625313e-06,0.0,0.0,0,0,0,43.5
78227,0.002541270635317658,0.0009454727363681741,-9.806266993496747,5.002501250625313e-06,0.0,0.0,0,0,0,42.93
78237,0.002541270635317658,0.0009454727363681741,-9.816266993496747,5.002501250625313e-06,0.0,0.0,0,0,0,43.06
78247,0.002541270635317658,0.0009454727363681741,-9.806266993496747,5.002501250625313e-06,0.0,0.0,0,0,0,43.12
78257,0.002541270635317658,0.0009454727363681741,-9.806266993496747,5.002501250625313e-06,0.0,0.0,0,0,0,43.31
78267,0.002541270635317658,0.0009454727363681741,-9.806266993496747,5.002501250625313e-06,0.0,0.0,0,0,0,43.18
78277,0.002541270635317658,0.0009454727363681741,-9.816266993496747,5.002501250625313e-06,0.0,0.0,0,0,0,43.31
78287,0.002541270635317658,0.0009454727363681741,-9.816266993496747,5.002501250625313e-06,0.0,0.0,0,0,0,43.06
78297,0.002541270635317658,0.0009454727363681741,-9.806266993496747,5.002501250625313e-06,0.0,0.0,0,0,0,43.12
78307,0.002541270635317658,0.0009454727363681741,-9.806266993496747,5.002501250625313e-06,0.0,0.0,0,0,0,43.18
78317,-0.007458729364682337,0.0009454727363681741,-9.806266993496747,5.002501250625313e-06,0.0,0.0,0,0,0,43.5
78327,-0.007458729364682337,0.0009454727363681741,-9.816266993496747,5.002501250625313e-06,0.0,0.0,0,0,0,43.06
78337,-0.007458729364682337,0.0009454727363681741,-9.816266993496747,5.002501250625313e-06,0.0,0.0,0,0,0,43.25
78347,-0.007458729364682337,0.0009454727363681741,-9.806266993496747,5.002501250625313e-06,0.0,0.0,0,0,0,43.12
78357,-0.007458729364682337,-0.009054527263631824,-9.806266993496747,5.002501250625313e-06,0.0,0.0,0,0,0,43.37
78367,0.002541270635317658,0.0009454727363681741,-9.806266993496747,5.002501250625313e-06,0.0,0.0,0,0,0,43.06
78377,-0.007458729364682337,0.0009454727363681741,-9.816266993496747,5.002501250625313e-06,0.0,0.0,0,0,0,43.06
78387,-0.007458729364682337,0.0009454727363681741,-9.826266993496747,5.002501250625313e-06,0.0,0.0,0,0,0,43.12
78397,-0.007458729364682337,0.0009454727363681741,-9.816266993496747,5.002501250625313e-06,0.0,0.0,0,0,0,43.25
78407,-0.007458729364682337,0.0009454727363681741,-9.816266993496747,5.002501250625313e-06,0.0,0.0,0,0,0,43.06
78417,-0.007458729364682337,0.0009454727363681741,-9.806266993496747,5.002501250625313e-06,0.0,0.0,0,0,0,43.37
78427,0.002541270635317658,0.0009454727363681741,-9.806266993496747,5.002501250625313e-06,0.0,0.0,0,0,0,43.25
78437,0.002541270635317658,0.0009454727363681741,-9.816266993496747,5.002501250625313e-06,0.0,0.0,0,0,0,43.37
78447,0.002541270635317658,0.0009454727363681741,-9.816266993496747,5.002501250625313e-06,0.0,0.0,0,0,0,43.18
78457,-0.007458729364682337,0.010945472736368176,-9.826266993496747,5.002501250625313e-06,0.0,0.0,0,0,0,43.25
78467,-0.007458729364682337,0.0009454727363681741,-9.816266993496747,5.002501250625313e-06,0.0,0.0,0,0,0,43.12
78477,0.002541270635317658,0.0009454727363681741,-9.806266993496747,5.002501250625313e-06,0.0,0.0,0,0,0,43.31
78487,0.002541270635317658,0.0009454727363681741,-9.806266993496747,5.002501250625313e-06,0.0,0.0,0,0,0,43.0
78497,0.002541270635317658,0.0009454727363681741,-9.816266993496747,5.002501250625313e-06,0.0,0.0,0,0,0,43.25
78507,0.002541270635317658,0.0009454727363681741,-9.816266993496747,5.002501250625313e-06,0.0,0.0,0,0,0,43.37
78517,-0.007458729364682337,-0.009054527263631824,-9.816266993496747,5.002501250625313e-06,0.0,0.0,0,0,0,43.18
78527,-0.007458729364682337,-0.009054527263631824,-9.816266993496747,5.002501250625313e-06,0.0,0.0,0,0,0,43.12
78537,0.002541270635317658,-0.009054527263631824,-9.816266993496747,5.002501250625313e-06,0.0,0.0,0,0,0,43.12
78547,0.002541270635317658,-0.009054527263631824,-9.816266993496747,5.002501250625313e-06,0.0,0.0,0,0,0,43.37
78557,0.002541270635317658,-0.009054527263631824,-9.816266993496747,5.002501250625313e-06,0.0,0.0,0,0,0,43.25
78567,0.002541270635317658,0.0009454727363681741,-9.816266993496747,5.002501250625313e-06,0.0,0.0,0,0,0,43.37
78577,-0.007458729364682337,-0.009054527263631824,-9.816266993496747,5.002501250625313e-06,0.0,0.0,0,0,0,43.06
78587,-0.007458729364682337,0.0009454727363681741,-9.816266993496747,5.002501250625313e-06,0.0,0.0,0,0,0,43.43
78597,0.002541270635317658,0.0009454727363681741,-9.816266993496747,5.002501250625313e-06,0.0,0.0,0,0,0,43.43
78607,0.002541270635317658,0.0009454727363681741,-9.806266993496747,-0.009994997498749375,0.0,0.0,0,0,0,43.18
78617,0.002541270635317658,0.0009454727363681741,-9.806266993496747,5.002501250625313e-06,0.0,0.0,0,0,0,43.06
78627,-0.007458729364682337,0.0009454727363681741,-9.816266993496747,5.002501250625313e-06,0.0,0.0,0,0,0,43.18
78637,0.002541270635317658,0.0009454727363681741,-9.816266993496747,5.002501250625313e-06,0.0,0.0,0,0,0,43.37
78647,0.002541270635317658,0.0009454727363681741,-9.816266993496747,5.002501250625313e-06,0.0,0.0,0,0,0,43.0
78657,0.002541270635317658,0.0009454727363681741,-9.806266993496747,5.002501250625313e-06,0.0,0.0,0,0,0,43.06
78667,0.002541270635317658,0.0009454727363681741,-9.806266993496747,5.002501250625313e-06,0.0,0.0,0,0,0,43.37
78677,0.002541270635317658,0.0009454727363681741,-9.816266993496747,5.002501250625313e-06,0.0,0.0,0,0,0,43.25
78687,0.002541270635317658,0.0009454727363681741,-9.826266993496747,5.002501250625313e-06,0.0,0.0,0,0,0,43.25
78697,0.002541270635317658,0.0009454727363681741,-9.816266993496747,5.002501250625313e-06,0.0,0.0,0,0,0,43.25
78707,-0.007458729364682337,0.0009454727363681741,-9.806266993496747,5.002501250625313e-06,0.0,0.0,0,0,0,43.31
78717,0.002541270635317658,0.0009454727363681741,-9.806266993496747,5.002501250625313e-06,0.0,0.0,0,0,0,43.25
78727,0.002541270635317658,0.0009454727363681741,-9.816266993496747,5.002501250625313e-06,0.0,0.0,0,0,0,43.18
78737,0.002541270635317658,-0.009054527263631824,-9.816266993496747,5.002501250625313e-06,0.0,0.0,0,0,0,43.43
78747,-0.007458729364682337,0.010945472736368176,-9.806266993496747,5.002501250625313e-06,0.0,0.0,0,0,0,43.18
78757,0.002541270635317658,0.0009454727363681741,-9.816266993496747,5.002501250625313e-06,0.0,0.0,0,0,0,43.31
78767,0.002541270635317658,0.0009454727363681741,-9.816266993496747,5.002501250625313e-06,0.0,0.0,0,0,0,43.37
78777,0.002541270635317658,0.0009454727363681741,-9.816266993496747,5.002501250625313e-06,0.0,0.0,0,0,0,43.06
78787,0.002541270635317658,0.0009454727363681741,-9.806266993496747,5.002501250625313e-06,0.0,0.0,0,0,0,43.25
78797,0.002541270635317658,0.0009454727363681741,-9.806266993496747,5.002501250625313e-06,0.0,0.0,0,0,0,43.12
78807,0.002541270635317658,0.0009454727363681741,-9.806266993496747,5.002501250625313e-06,0.0,0.0,0,0,0,43.06
78817,0.002541270635317658,0.0009454727363681741,-9.816266993496747,5.002501250625313e-06,0.0,0.0,0,0,0,43.12
78827,0.002541270635317658,0.0009454727363681741,-9.816266993496747,5.002501250625313e-06,0.0,0.0,0,0,0,43.18
78837,0.002541270635317658,0.0009454727363681741,-9.806266993496747,5.002501250625313e-06,0.0,0.0,0,0,0,43.18
78847,0.002541270635317658,0.010945472736368176,-9.806266993496747,5.002501250625313e-06,0.0,0.0,0,0,0,43.25
78857,0.002541270635317658,0.0009454727363681741,-9.806266993496747,5.002501250625313e-06,0.0,0.0,0,0,0,43.25
78867,0.002541270635317658,-0.019054527263631826,-9.816266993496747,5.002501250625313e-06,0.0,0.0,0,0,0,43.37
78877,0.002541270635317658,-0.009054527263631824,-9.816266993496747,5.002501250625313e-06,0.0,0.0,0,0,0,43.25
78887,0.002541270635317658,0.0009454727363681741,-9.816266993496747,5.002501250625313e-06,0.0,0.0,0,0,0,43.18
78897,0.002541270635317658,0.0009454727363681741,-9.816266993496747,5.002501250625313e-06,0.0,0.0,0,0,0,43.12
78907,0.002541270635317658,0.0009454727363681741,-9.816266993496747,5.002501250625313e-06,0.0,0.0,0,0,0,43.37
78917,0.002541270635317658,0.0009454727363681741,-9.816266993496747,5.002501250625313e-06,0.0,0.0,0,0,0,43.06
78927,-0.007458729364682337,0.0009454727363681741,-9.816266993496747,5.002501250625313e-06,0.0,0.0,0,0,0,43.06
78937,-0.007458729364682337,0.0009454727363681741,-9.816266993496747,5.002501250625313e-06,0.0,0.0,0,0,0,43.18
78947,-0.007458729364682337,-0.009054527263631824,-9.806266993496747,5.002501250625313e-06,0.0,0.0,0,0,0,43.31
78957,-0.007458729364682337,0.0009454727363681741,-9.816266993496747,5.002501250625313e-06,0.0,0.0,0,0,0,43.25
78967,0.002541270635317658,0.0009454727363681741,-9.816266993496747,5.002501250625313e-06,0.0,0.0,0,0,0,43.25
78977,0.002541270635317658,0.0009454727363681741,-9.826266993496747,5.002501250625313e-06,0.0,0.0,0,0,0,43.37
78987,0.002541270635317658,0.010945472736368176,-9.816266993496747,5.002501250625313e-06,0.0,0.0,0,0,0,43.43
78997,0.002541270635317658,0.010945472736368176,-9.806266993496747,5.002501250625313e-06,0.0,0.0,0,0,0,43.12
79007,0.002541270635317658,0.010945472736368176,-9.806266993496747,5.002501250625313e-06,0.0,0.0,0,0,0,43.43
79017,0.002541270635317658,0.0009454727363681741,-9.806266993496747,5.002501250625313e-06,0.0,0.0,0,0,0,43.12
79027,0.002541270635317658,0.0009454727363681741,-9.816266993496747,5.002501250625313e-06,0.0,0.0,0,0,0,43.43
79037,0.002541270635317658,0.0009454727363681741,-9.816266993496747,5.002501250625313e-06,0.0,0.0,0,0,0,42.93
79047,0.002541270635317658,0.0009454727363681741,-9.816266993496747,5.002501250625313e-06,0.0,0.0,0,0,0,43.31
79057,-0.007458729364682337,0.0009454727363681741,-9.816266993496747,5.002501250625313e-06,0.0,0.0,0,0,0,43.25
79067,0.002541270635317658,0.0009454727363681741,-9.816266993496747,5.002501250625313e-06,0.0,0.0,0,0,0,43.0
79077,0.012541270635317653,0.0009454727363681741,-9.806266993496747,5.002501250625313e-06,0.0,0.0,0,0,0,43.25
79087,0.012541270635317653,0.0009454727363681741,-9.816266993496747,5.002501250625313e-06,0.0,0.0,0,0,0,43.25
79097,0.002541270635317658,0.0009454727363681741,-9.816266993496747,5.002501250625313e-06,0.0,0.0,0,0,0,43.06
79107,-0.007458729364682337,-0.009054527263631824,-9.806266993496747,5.002501250625313e-06,0.0,0.0,0,0,0,43.37
79117,-0.007458729364682337,-0.009054527263631824,-9.806266993496747,5.002501250625313e-06,0.0,0.0,0,0,0,43.25
79127,0.002541270635317658,-0.009054527263631824,-9.816266993496747,5.002501250625313e-06,0.0,0.0,0,0,0,43.12
79137,0.002541270635317658,0.0009454727363681741,-9.806266993496747,5.002501250625313e-06,0.0,0.0,0,0,0,43.06
79147,0.002541270635317658,0.0009454727363681741,-9.806266993496747,5.002501250625313e-06,0.0,0.0,0,0,0,43.12
79157,0.002541270635317658,0.0009454727363681741,-9.806266993496747,5.002501250625313e-06,0.0,0.0,0,0,0,43.18
79167,0.002541270635317658,-0.009054527263631824,-9.816266993496747,5.002501250625313e-06,0.0,0.0,0,0,0,42.93
79177,0.002541270635317658,-0.009054527263631824,-9.816266993496747,5.002501250625313e-06,0.0,0.0,0,0,0,43.37
79187,0.002541270635317658,0.0009454727363681741,-9.816266993496747,5.002501250625313e-06,0.0,0.0,0,0,0,43.25
79197,0.002541270635317658,0.0009454727363681741,-9.816266993496747,5.002501250625313e-06,0.0,0.0,0,0,0,43.25
79207,0.002541270635317658,0.0009454727363681741,-9.816266993496747,5.002501250625313e-06,0.0,0.0,0,0,0,43.12
79217,0.002541270635317658,0.0009454727363681741,-9.816266993496747,5.002501250625313e-06,0.0,0.0,0,0,0,43.06
79227,0.002541270635317658,0.0009454727363681741,-9.816266993496747,5.002501250625313e-06,0.0,0.0,0,0,0,43.37
79237,0.002541270635317658,0.0009454727363681741,-9.806266993496747,5.002501250625313e-06,0.0,0.0,0,0,0,43.25
79247,0.002541270635317658,-0.009054527263631824,-9.816266993496747,5.002501250625313e-06,0.0,0.0,0,0,0,43.37
79257,0.002541270635317658,-0.009054527263631824,-9.816266993496747,5.002501250625313e-06,0.0,0.0,0,0,0,43.18
79267,0.002541270635317658,0.0009454727363681741,-9.816266993496747,5.002501250625313e-06,0.0,0.0,0,0,0,43.12
79277,0.002541270635317658,0.010945472736368176,-9.806266993496747,5.002501250625313e-06,0.0,0.0,0,0,0,43.18
79287,0.002541270635317658,0.0009454727363681741,-9.806266993496747,5.002501250625313e-06,0.0,0.0,0,0,0,43.25
79297,0.002541270635317658,0.0009454727363681741,-9.806266993496747,5.002501250625313e-06,0.0,0.0,0,0,0,43.0
79307,0.002541270635317658,0.0009454727363681741,-9.816266993496747,5.002501250625313e-06,0.0,0.0,0,0,0,43.31
79317,0.012541270635317653,0.0009454727363681741,-9.816266993496747,5.002501250625313e-06,0.0,0.0,0,0,0,43.12
79327,0.002541270635317658,0.0009454727363681741,-9.816266993496747,5.002501250625313e-06,0.0,0.0,0,0,0,43.12
79337,0.002541270635317658,0.0009454727363681741,-9.806266993496747,5.002501250625313e-06,0.0,0.0,0,0,0,43.12
79347,0.002541270635317658,0.0009454727363681741,-9.816266993496747,5.002501250625313e-06,0.0,0.0,0,0,0,43.06
79357,0.002541270635317658,0.0009454727363681741,-9.816266993496747,5.002501250625313e-06,0.0,0.0,0,0,0,43.31
79367,0.002541270635317658,0.0009454727363681741,-9.816266993496747,5.002501250625313e-06,0.0,0.0,0,0,0,43.18
79377,0.002541270635317658,-0.009054527263631824,-9.806266993496747,5.002501250625313e-06,0.0,0.0,0,0,0,43.06
79387,0.002541270635317658,0.0009454727363681741,-9.806266993496747,5.002501250625313e-06,0.0,0.0,0,0,0,43.31
79397,0.002541270635317658,0.010945472736368176,-9.816266993496747,5.002501250625313e-06,0.0,0.0,0,0,0,43.37
79407,0.002541270635317658,0.010945472736368176,-9.806266993496747,5.002501250625313e-06,0.0,0.0,0,0,0,43.37
79417,0.002541270635317658,0.0009454727363681741,-9.806266993496747,5.002501250625313e-06,0.0,0.0,0,0,0,43.43
79427,0.002541270635317658,0.0009454727363681741,-9.816266993496747,5.002501250625313e-06,0.0,0.0,0,0,0,43.25
79437,0.002541270635317658,0.0009454727363681741,-9.806266993496747,5.002501250625313e-06,0.0,0.0,0,0,0,43.18
79447,-0.007458729364682337,0.0009454727363681741,-9.806266993496747,5.002501250625313e-06,0.0,0.0,0,0,0,43.31
79457,-0.007458729364682337,0.0009454727363681741,-9.806266993496747,5.002501250625313e-06,0.0,0.0,0,0,0,43.37
79467,0.002541270635317658,-0.009054527263631824,-9.816266993496747,5.002501250625313e-06,0.0,0.0,0,0,0,43.25
79477,0.002541270635317658,0.0009454727363681741,-9.816266993496747,5.002501250625313e-06,0.0,0.0,0,0,0,43.12
79487,-0.007458729364682337,0.0009454727363681741,-9.816266993496747,5.002501250625313e-06,0.0,0.0,0,0,0,43.18
79497,0.002541270635317658,0.0009454727363681741,-9.816266993496747,5.002501250625313e-06,0.0,0.0,0,0,0,43.06
79507,0.002541270635317658,0.0009454727363681741,-9.816266993496747,5.002501250625313e-06,0.0,0.0,0,0,0,43.18
79517,0.002541270635317658,-0.009054527263631824,-9.816266993496747,5.002501250625313e-06,0.0,0.0,0,0,0,43.31
79527,0.002541270635317658,-0.009054527263631824,-9.816266993496747,5.002501250625313e-06,0.0,0.0,0,0,0,43.06
79537,0.012541270635317653,0.0009454727363681741,-9.826266993496747,5.002501250625313e-06,0.0,0.0,0,0,0,43.25
79547,0.002541270635317658,0.0009454727363681741,-9.826266993496747,5.002501250625313e-06,0.0,0.0,0,0,0,43.06
79557,0.002541270635317658,0.0009454727363681741,-9.816266993496747,5.002501250625313e-06,0.0,0.0,0,0,0,43.12
79567,-0.007458729364682337,0.0009454727363681741,-9.816266993496747,5.002501250625313e-06,0.0,0.0,0,0,0,43.25
79577,-0.007458729364682337,0.0009454727363681741,-9.816266993496747,5.002501250625313e-06,0.0,0.0,0,0,0,43.12
79587,0.002541270635317658,-0.009054527263631824,-9.816266993496747,5.002501250625313e-06,0.0,0.0,0,0,0,43.25
79597,0.002541270635317658,0.0009454727363681741,-9.816266993496747,5.002501250625313e-06,0.0,0.0,0,0,0,43.06
79607,0.012541270635317653,0.0009454727363681741,-9.816266993496747,5.002501250625313e-06,0.0,0.0,0,0,0,43.5
79617,0.002541270635317658,0.0009454727363681741,-9.816266993496747,5.002501250625313e-06,0.0,0.0,0,0,0,43.06
79627,0.002541270635317658,0.0009454727363681741,-9.806266993496747,5.002501250625313e-06,0.0,0.0,0,0,0,43.31
79637,0.002541270635317658,0.0009454727363681741,-9.806266993496747,5.002501250625313e-06,0.0,0.0,0,0,0,43.5
79647,0.002541270635317658,0.0009454727363681741,-9.806266993496747,5.002501250625313e-06,0.0,0.0,0,0,0,43.31
79657,-0.007458729364682337,0.0009454727363681741,-9.806266993496747,5.002501250625313e-06,0.0,0.0,0,0,0,43.25
79667,0.002541270635317658,-0.009054527263631824,-9.806266993496747,5.002501250625313e-06,0.0,0.0,0,0,0,43.18
79677,-0.007458729364682337,0.0009454727363681741,-9.816266993496747,5.002501250625313e-06,0.0,0.0,0,0,0,43.43
79687,0.002541270635317658,0.0009454727363681741,-9.816266993496747,5.002501250625313e-06,0.0,0.0,0,0,0,43.31
79697,0.002541270635317658,0.0009454727363681741,-9.826266993496747,5.002501250625313e-06,0.0,0.0,0,0,0,43.37
79707,0.002541270635317658,-0.009054527263631824,-9.816266993496747,5.002501250625313e-06,0.0,0.0,0,0,0,43.31
79717,-0.007458729364682337,0.0009454727363681741,-9.816266993496747,5.002501250625313e-06,0.0,0.0,0,0,0,43.37
79727,-0.007458729364682337,0.0009454727363681741,-9.806266993496747,5.002501250625313e-06,0.0,0.0,0,0,0,43.06
79737,0.002541270635317658,-0.009054527263631824,-9.816266993496747,5.002501250625313e-06,0.0,0.0,0,0,0,43.31
79747,0.002541270635317658,0.0009454727363681741,-9.826266993496747,5.002501250625313e-06,0.0,0.0,0,0,0,43.25
79757,0.002541270635317658,0.010945472736368176,-9.816266993496747,5.002501250625313e-06,0.0,0.0,0,0,0,43.18
79767,0.002541270635317658,0.0009454727363681741,-9.816266993496747,5.002501250625313e-06,0.0,0.0,0,0,0,43.25
79777,0.002541270635317658,0.0009454727363681741,-9.816266993496747,5.002501250625313e-06,0.0,0.0,0,0,0,43.5
79787,-0.007458729364682337,0.0009454727363681741,-9.816266993496747,5.002501250625313e-06,0.0,0.0,0,0,0,43.25
79797,-0.007458729364682337,0.010945472736368176,-9.816266993496747,5.002501250625313e-06,0.0,0.0,0,0,0,42.93
79807,-0.007458729364682337,0.0009454727363681741,-9.816266993496747,5.002501250625313e-06,0.0,0.0,0,0,0,43.43
79817,0.002541270635317658,-0.009054527263631824,-9.806266993496747,5.002501250625313e-06,0.0,0.0,0,0,0,43.12
79827,0.002541270635317658,-0.009054527263631824,-9.806266993496747,5.002501250625313e-06,0.0,0.0,0,0,0,43.18
79837,0.002541270635317658,0.0009454727363681741,-9.816266993496747,5.002501250625313e-06,0.0,0.0,0,0,0,43.25
79847,0.002541270635317658,0.0009454727363681741,-9.816266993496747,5.002501250625313e-06,0.0,0.0,0,0,0,43.25
79857,0.002541270635317658,0.010945472736368176,-9.816266993496747,5.002501250625313e-06,0.0,0.0,0,0,0,43.18
79867,0.002541270635317658,0.010945472736368176,-9.816266993496747,5.002501250625313e-06,0.0,0.0,0,0,0,43.31
79877,0.002541270635317658,0.0009454727363681741,-9.816266993496747,5.002501250625313e-06,0.0,0.0,0,0,0,43.37
79887,0.002541270635317658,0.0009454727363681741,-9.816266993496747,5.002501250625313e-06,0.0,0.0,0,0,0,43.31
79897,0.002541270635317658,0.0009454727363681741,-9.806266993496747,5.002501250625313e-06,0.0,0.0,0,0,0,43.12
79907,0.002541270635317658,0.0009454727363681741,-9.806266993496747,5.002501250625313e-06,0.0,0.0,0,0,0,43.18
79917,-0.007458729364682337,-0.009054527263631824,-9.816266993496747,5.002501250625313e-06,0.0,0.0,0,0,0,43.31
79927,0.002541270635317658,-0.009054527263631824,-9.816266993496747,5.002501250625313e-06,0.0,0.0,0,0,0,43.12
79937,0.002541270635317658,0.0009454727363681741,-9.816266993496747,5.002501250625313e-06,0.0,0.0,0,0,0,43.06
79947,0.002541270635317658,0.0009454727363681741,-9.816266993496747,5.002501250625313e-06,0.0,0.0,0,0,0,43.18
79957,-0.007458729364682337,0.0009454727363681741,-9.816266993496747,5.002501250625313e-06,0.0,0.0,0,0,0,43.25
79967,0.002541270635317658,0.0009454727363681741,-9.826266993496747,5.002501250625313e-06,0.0,0.0,0,0,0,43.18
79977,0.002541270635317658,0.0009454727363681741,-9.816266993496747,5.002501250625313e-06,0.0,0.0,0,0,0,43.18
79987,0.002541270635317658,0.0009454727363681741,-9.816266993496747,5.002501250625313e-06,0.0,0.0,0,0,0,43.06
79997,0.002541270635317658,0.0009454727363681741,-9.816266993496747,5.002501250625313e-06,0.0,0.0,0,0,0,43.06
80007,0.002541270635317658,0.0009454727363681741,-9.816266993496747,5.002501250625313e-06,0.0,0.0,0,0,0,43.12
80017,-0.007458729364682337,0.0009454727363681741,-9.816266993496747,5.002501250625313e-06,0.0,0.0,0,0,0,43.5
80027,-0.007458729364682337,0.0009454727363681741,-9.816266993496747,5.002501250625313e-06,0.0,0.0,0,0,0,43.18
80037,-0.007458729364682337,-0.009054527263631824,-9.806266993496747,5.002501250625313e-06,0.0,0.0,0,0,0,43.43
80047,-0.007458729364682337,0.0009454727363681741,-9.806266993496747,5.002501250625313e-06,0.0,0.0,0,0,0,43.18
80057,-0.007458729364682337,0.0009454727363681741,-9.816266993496747,5.002501250625313e-06,0.0,0.0,0,0,0,42.87
80067,0.002541270635317658,0.0009454727363681741,-9.806266993496747,5.002501250625313e-06,0.0,0.0,0,0,0,43.18
80077,0.002541270635317658,0.0009454727363681741,-9.806266993496747,5.002501250625313e-06,0.0,0.0,0,0,0,43.43
80087,0.002541270635317658,0.0009454727363681741,-9.806266993496747,5.002501250625313e-06,0.0,0.0,0,0,0,43.06
80097,0.002541270635317658,0.0009454727363681741,-9.806266993496747,5.002501250625313e-06,0.0,0.0,0,0,0,43.31
80107,0.002541270635317658,0.010945472736368176,-9.806266993496747,5.002501250625313e-06,0.0,0.0,0,0,0,42.93
80117,0.002541270635317658,0.0009454727363681741,-9.816266993496747,5.002501250625313e-06,0.0,0.0,0,0,0,43.37
80127,0.012541270635317653,-0.009054527263631824,-9.816266993496747,5.002501250625313e-06,0.0,0.0,0,0,0,43.12
80137,0.002541270635317658,-0.009054527263631824,-9.816266993496747,5.002501250625313e-06,0.0,0.0,0,0,0,43.18
80147,-0.007458729364682337,-0.009054527263631824,-9.816266993496747,5.002501250625313e-06,0.0,0.0,0,0,0,43.31
80157,0.002541270635317658,-0.009054527263631824,-9.816266993496747,5.002501250625313e-06,0.0,0.0,0,0,0,43.31
80167,0.002541270635317658,-0.009054527263631824,-9.816266993496747,5.002501250625313e-06,0.0,0.0,0,0,0,43.25
80177,0.002541270635317658,0.0009454727363681741,-9.816266993496747,5.002501250625313e-06,0.0,0.0,0,0,0,43.18
80187,0.002541270635317658,0.0009454727363681741,-9.816266993496747,5.002501250625313e-06,0.0,0.0,0,0,0,43.37
80197,0.002541270635317658,0.0009454727363681741,-9.816266993496747,5.002501250625313e-06,0.0,0.0,0,0,0,43.25
80207,0.002541270635317658,0.0009454727363681741,-9.816266993496747,5.002501250625313e-06,0.0,0.0,0,0,0,43.5
80217,0.002541270635317658,0.0009454727363681741,-9.816266993496747,5.002501250625313e-06,0.0,0.0,0,0,0,43.12
80227,0.002541270635317658,-0.009054527263631824,-9.816266993496747,5.002501250625313e-06,0.0,0.0,0,0,0,43.12
80237,0.002541270635317658,0.0009454727363681741,-9.816266993496747,5.002501250625313e-06,0.0,0.0,0,0,0,43.12
80247,0.002541270635317658,0.0009454727363681741,-9.816266993496747,5.002501250625313e-06,0.0,0.0,0,0,0,43.12
80257,0.002541270635317658,0.0009454727363681741,-9.816266993496747,5.002501250625313e-06,0.0,0.0,0,0,0,43.18
80267,0.002541270635317658,0.0009454727363681741,-9.816266993496747,5.002501250625313e-06,0.0,0.0,0,0,0,43.12
80277,0.002541270635317658,0.0009454727363681741,-9.816266993496747,5.002501250625313e-06,0.0,0.0,0,0,0,43.25
80287,-0.007458729364682337,0.0009454727363681741,-9.816266993496747,5.002501250625313e-06,0.0,0.0,0,0,0,43.12
80297,-0.007458729364682337,0.0009454727363681741,-9.816266993496747,5.002501250625313e-06,0.0,0.0,0,0,0,43.31
80307,0.002541270635317658,0.0009454727363681741,-9.806266993496747,5.002501250625313e-06,0.0,0.0,0,0,0,43.25
80317,0.002541270635317658,0.0009454727363681741,-9.806266993496747,5.002501250625313e-06,0.0,0.0,0,0,0,43.18
80327,0.002541270635317658,0.010945472736368176,-9.806266993496747,5.002501250625313e-06,0.0,0.0,0,0,0,43.43
80337,0.002541270635317658,0.010945472736368176,-9.816266993496747,5.002501250625313e-06,0.0,0.0,0,0,0,43.06
80347,0.002541270635317658,0.010945472736368176,-9.816266993496747,5.002501250625313e-06,0.0,0.0,0,0,0,43.18
80357,0.002541270635317658,0.0009454727363681741,-9.816266993496747,5.002501250625313e-06,0.0,0.0,0,0,0,43.18
80367,0.002541270635317658,0.0009454727363681741,-9.816266993496747,5.002501250625313e-06,0.0,0.0,0,0,0,43.43
80377,0.002541270635317658,0.0009454727363681741,-9.816266993496747,5.002501250625313e-06,0.0,0.0,0,0,0,43.31
80387,0.012541270635317653,0.010945472736368176,-9.816266993496747,5.002501250625313e-06,0.0,0.0,0,0,0,43.06
80397,0.002541270635317658,0.0009454727363681741,-9.816266993496747,5.002501250625313e-06,0.0,0.0,0,0,0,43.0
80407,0.002541270635317658,0.0009454727363681741,-9.816266993496747,5.002501250625313e-06,0.0,0.0,0,0,0,43.5
80417,0.002541270635317658,0.0009454727363681741,-9.816266993496747,5.002501250625313e-06,0.0,0.0,0,0,0,43.18
80427,0.002541270635317658,0.0009454727363681741,-9.806266993496747,5.002501250625313e-06,0.0,0.0,0,0,0,43.18
80437,0.002541270635317658,0.0009454727363681741,-9.816266993496747,5.002501250625313e-06,0.0,0.0,0,0,0,43.18
80447,-0.007458729364682337,-0.009054527263631824,-9.806266993496747,5.002501250625313e-06,0.0,0.0,0,0,0,43.18
80457,-0.017458729364682346,0.0009454727363681741,-9.816266993496747,5.002501250625313e-06,0.0,0.0,0,0,0,43.25
80467,-0.007458729364682337,0.0009454727363681741,-9.816266993496747,5.002501250625313e-06,0.0,0.0,0,0,0,42.87
80477,0.002541270635317658,0.0009454727363681741,-9.816266993496747,5.002501250625313e-06,0.0,0.0,0,0,0,43.37
80487,0.002541270635317658,0.010945472736368176,-9.816266993496747,5.002501250625313e-06,0.0,0.0,0,0,0,43.37
80497,0.002541270635317658,0.0009454727363681741,-9.806266993496747,5.002501250625313e-06,0.0,0.0,0,0,0,43.5
80507,-0.007458729364682337,0.0009454727363681741,-9.796266993496747,5.002501250625313e-06,0.0,0.0,0,0,0,43.31
80517,-0.007458729364682337,0.0009454727363681741,-9.806266993496747,5.002501250625313e-06,0.0,0.0,0,0,0,43.37
80527,-0.007458729364682337,0.0009454727363681741,-9.806266993496747,5.002501250625313e-06,0.0,0.0,0,0,0,43.31
80537,-0.007458729364682337,0.010945472736368176,-9.816266993496747,5.002501250625313e-06,0.0,0.0,0,0,0,43.12
80547,-0.007458729364682337,0.010945472736368176,-9.816266993496747,5.002501250625313e-06,0.0,0.0,0,0,0,43.31
80557,-0.007458729364682337,0.010945472736368176,-9.806266993496747,5.002501250625313e-06,0.0,0.0,0,0,0,43.31
80567,0.002541270635317658,-0.009054527263631824,-9.806266993496747,5.002501250625313e-06,0.0,0.0,0,0,0,43.31
80577,0.002541270635317658,-0.009054527263631824,-9.806266993496747,5.002501250625313e-06,0.0,0.0,0,0,0,43.18
80587,-0.007458729364682337,0.0009454727363681741,-9.816266993496747,5.002501250625313e-06,0.0,0.0,0,0,0,43.12
80597,0.002541270635317658,0.0009454727363681741,-9.816266993496747,5.002501250625313e-06,0.0,0.0,0,0,0,43.25
80607,0.002541270635317658,0.0009454727363681741,-9.816266993496747,5.002501250625313e-06,0.0,0.0,0,0,0,43.37
80617,0.002541270635317658,0.0009454727363681741,-9.816266993496747,5.002501250625313e-06,0.0,0.0,0,0,0,42.93
80627,-0.007458729364682337,0.0009454727363681741,-9.816266993496747,5.002501250625313e-06,0.0,0.0,0,0,0,43.37
80637,0.002541270635317658,0.0009454727363681741,-9.816266993496747,5.002501250625313e-06,0.0,0.0,0,0,0,43.12
80647,-0.007458729364682337,0.0009454727363681741,-9.816266993496747,5.002501250625313e-06,0.0,0.0,0,0,0,43.37
80657,-0.007458729364682337,-0.009054527263631824,-9.806266993496747,5.002501250625313e-06,0.0,0.0,0,0,0,43.56
80667,-0.007458729364682337,0.0009454727363681741,-9.806266993496747,5.002501250625313e-06,0.0,0.0,0,0,0,43.12
80677,-0.007458729364682337,0.0009454727363681741,-9.806266993496747,5.002501250625313e-06,0.0,0.0,0,0,0,43.25
80687,0.002541270635317658,0.0009454727363681741,-9.806266993496747,5.002501250625313e-06,0.0,0.0,0,0,0,43.12
80697,0.002541270635317658,0.0009454727363681741,-9.816266993496747,5.002501250625313e-06,0.0,0.0,0,0,0,43.25
80707,-0.007458729364682337,0.0009454727363681741,-9.816266993496747,5.002501250625313e-06,0.0,0.0,0,0,0,43.25
80717,0.002541270635317658,0.0009454727363681741,-9.806266993496747,5.002501250625313e-06,0.0,0.0,0,0,0,43.43
80727,0.002541270635317658,0.0009454727363681741,-9.806266993496747,5.002501250625313e-06,0.0,0.0,0,0,0,43.06
80737,0.002541270635317658,0.0009454727363681741,-9.806266993496747,5.002501250625313e-06,0.0,0.0,0,0,0,43.31
80747,0.002541270635317658,0.0009454727363681741,-9.816266993496747,5.002501250625313e-06,0.0,0.0,0,0,0,43.25
80757,-0.007458729364682337,0.0009454727363681741,-9.816266993496747,5.002501250625313e-06,0.0,0.0,0,0,0,43.5
80767,-0.007458729364682337,0.0009454727363681741,-9.806266993496747,5.002501250625313e-06,0.0,0.0,0,0,0,43.5
80777,-0.007458729364682337,0.0009454727363681741,-9.806266993496747,5.002501250625313e-06,0.0,0.0,0,0,0,43.43
80787,0.002541270635317658,-0.009054527263631824,-9.816266993496747,5.002501250625313e-06,0.0,0.0,0,0,0,43.06
80797,0.002541270635317658,0.0009454727363681741,-9.816266993496747,5.002501250625313e-06,0.0,0.0,0,0,0,43.06
80807,0.002541270635317658,0.0009454727363681741,-9.816266993496747,5.002501250625313e-06,0.0,0.0,0,0,0,43.37
80817,0.012541270635317653,0.0009454727363681741,-9.806266993496747,5.002501250625313e-06,0.0,0.0,0,0,0,43.25
80827,0.002541270635317658,0.0009454727363681741,-9.816266993496747,5.002501250625313e-06,0.0,0.0,0,0,0,43.37
80837,0.002541270635317658,0.0009454727363681741,-9.816266993496747,5.002501250625313e-06,0.0,0.0,0,0,0,43.06
80847,0.002541270635317658,0.0009454727363681741,-9.816266993496747,5.002501250625313e-06,0.0,0.0,0,0,0,43.18
80857,0.002541270635317658,0.0009454727363681741,-9.816266993496747,5.002501250625313e-06,0.0,0.0,0,0,0,43.18
80867,0.002541270635317658,0.0009454727363681741,-9.816266993496747,5.002501250625313e-06,0.0,0.0,0,0,0,43.06
80877,0.002541270635317658,0.010945472736368176,-9.816266993496747,5.002501250625313e-06,0.0,0.0,0,0,0,43.37
80887,0.002541270635317658,0.010945472736368176,-9.816266993496747,5.002501250625313e-06,0.0,0.0,0,0,0,43.06
80897,-0.007458729364682337,0.010945472736368176,-9.816266993496747,5.002501250625313e-06,0.0,0.0,0,0,0,43.06
80907,-0.007458729364682337,0.0009454727363681741,-9.816266993496747,5.002501250625313e-06,0.0,0.0,0,0,0,43.18
80917,-0.007458729364682337,0.0009454727363681741,-9.816266993496747,5.002501250625313e-06,0.0,0.0,0,0,0,43.25
80927,0.002541270635317658,0.0009454727363681741,-9.816266993496747,5.002501250625313e-06,0.0,0.0,0,0,0,43.31
80937,0.002541270635317658,0.0009454727363681741,-9.816266993496747,5.002501250625313e-06,0.0,0.0,0,0,0,43.18
80947,0.002541270635317658,0.0009454727363681741,-9.816266993496747,5.002501250625313e-06,0.0,0.0,0,0,0,43.18
80957,-0.007458729364682337,0.0009454727363681741,-9.816266993496747,5.002501250625313e-06,0.0,0.0,0,0,0,43.12
80967,-0.007458729364682337,0.010945472736368176,-9.806266993496747,5.002501250625313e-06,0.0,0.0,0,0,0,43.31
80977,0.002541270635317658,0.010945472736368176,-9.806266993496747,5.002501250625313e-06,0.0,0.0,0,0,0,43.25
80987,0.012541270635317653,0.010945472736368176,-9.816266993496747,5.002501250625313e-06,0.0,0.0,0,0,0,43.12
80997,0.002541270635317658,0.010945472736368176,-9.806266993496747,5.002501250625313e-06,0.0,0.0,0,0,0,43.43
81007,0.002541270635317658,0.0009454727363681741,-9.806266993496747,5.002501250625313e-06,0.0,0.0,0,0,0,43.37
81017,0.002541270635317658,0.010945472736368176,-9.816266993496747,5.002501250625313e-06,0.0,0.0,0,0,0,43.25
81027,0.002541270635317658,0.010945472736368176,-9.816266993496747,5.002501250625313e-06,0.0,0.0,0,0,0,43.06
81037,0.002541270635317658,0.0009454727363681741,-9.806266993496747,5.002501250625313e-06,0.0,0.0,0,0,0,43.25
81047,0.002541270635317658,0.0009454727363681741,-9.806266993496747,5.002501250625313e-06,0.0,0.0,0,0,0,43.12
81057,0.002541270635317658,0.0009454727363681741,-9.806266993496747,5.002501250625313e-06,0.0,0.0,0,0,0,43.12
81067,0.002541270635317658,0.0009454727363681741,-9.806266993496747,5.002501250625313e-06,0.0,0.0,0,0,0,43.37
81077,0.002541270635317658,0.0009454727363681741,-9.816266993496747,5.002501250625313e-06,0.0,0.0,0,0,0,43.37
81087,0.002541270635317658,-0.009054527263631824,-9.816266993496747,5.002501250625313e-06,0.0,0.0,0,0,0,43.12
81097,0.002541270635317658,0.0009454727363681741,-9.806266993496747,5.002501250625313e-06,0.0,0.0,0,0,0,43.31
81107,0.002541270635317658,0.0009454727363681741,-9.806266993496747,5.002501250625313e-06,0.0,0.0,0,0,0,43.37
81117,0.002541270635317658,0.0009454727363681741,-9.816266993496747,5.002501250625313e-06,0.0,0.0,0,0,0,43.31
81127,-0.007458729364682337,0.0009454727363681741,-9.816266993496747,5.002501250625313e-06,0.0,0.0,0,0,0,43.37
81137,0.002541270635317658,0.0009454727363681741,-9.806266993496747,5.002501250625313e-06,0.0,0.0,0,0,0,43.12
81147,0.002541270635317658,0.0009454727363681741,-9.806266993496747,5.002501250625313e-06,0.0,0.0,0,0,0,43.25
81157,0.002541270635317658,0.0009454727363681741,-9.816266993496747,5.002501250625313e-06,0.0,0.0,0,0,0,43.37
81167,0.002541270635317658,-0.009054527263631824,-9.816266993496747,5.002501250625313e-06,0.0,0.0,0,0,0,43.12
81177,-0.007458729364682337,-0.009054527263631824,-9.806266993496747,5.002501250625313e-06,0.0,0.0,0,0,0,43.18
81187,0.002541270635317658,0.0009454727363681741,-9.806266993496747,5.002501250625313e-06,0.0,0.0,0,0,0,43.25
81197,0.002541270635317658,0.0009454727363681741,-9.816266993496747,5.002501250625313e-06,0.0,0.0,0,0,0,43.25
81207,0.002541270635317658,0.010945472736368176,-9.816266993496747,5.002501250625313e-06,0.0,0.0,0,0,0,43.37
81217,-0.007458729364682337,0.0009454727363681741,-9.816266993496747,5.002501250625313e-06,0.0,0.0,0,0,0,43.0
81227,-0.007458729364682337,0.0009454727363681741,-9.806266993496747,5.002501250625313e-06,0.0,0.0,0,0,0,43.18
81237,-0.007458729364682337,0.0009454727363681741,-9.806266993496747,5.002501250625313e-06,0.0,0.0,0,0,0,43.25
81247,0.002541270635317658,0.0009454727363681741,-9.806266993496747,5.002501250625313e-06,0.0,0.0,0,0,0,43.18
81257,0.002541270635317658,0.0009454727363681741,-9.806266993496747,5.002501250625313e-06,0.0,0.0,0,0,0,43.12
81267,0.002541270635317658,0.0009454727363681741,-9.806266993496747,5.002501250625313e-06,0.0,0.0,0,0,0,43.18
81277,0.002541270635317658,0.0009454727363681741,-9.806266993496747,5.002501250625313e-06,0.0,0.0,0,0,0,43.18
81287,0.002541270635317658,0.0009454727363681741,-9.806266993496747,5.002501250625313e-06,0.0,0.0,0,0,0,43.18
81297,0.002541270635317658,0.0009454727363681741,-9.806266993496747,5.002501250625313e-06,0.0,0.0,0,0,0,43.06
81307,0.002541270635317658,0.010945472736368176,-9.816266993496747,5.002501250625313e-06,0.0,0.0,0,0,0,43.31
81317,-0.007458729364682337,0.0009454727363681741,-9.806266993496747,5.002501250625313e-06,0.0,0.0,0,0,0,43.06
81327,-0.007458729364682337,0.0009454727363681741,-9.796266993496747,5.002501250625313e-06,0.0,0.0,0,0,0,43.25
81337,0.012541270635317653,0.0009454727363681741,-9.796266993496747,5.002501250625313e-06,-0.06,0.0,0,0,0,43.12
81347,0.002541270635317658,0.0009454727363681741,-9.806266993496747,-0.019994997498749376,-0.1,0.01,0,0,0,43.25
81357,-0.017458729364682346,0.0009454727363681741,-9.816266993496747,-0.019994997498749376,-0.08,0.01,0,0,0,43.12
81367,0.002541270635317658,0.0009454727363681741,-9.826266993496747,5.002501250625313e-06,-0.02,0.0,0,0,0,43.12
81377,-0.007458729364682337,0.0009454727363681741,-9.816266993496747,5.002501250625313e-06,0.01,0.0,0,0,0,43.06
81387,-0.007458729364682337,0.0009454727363681741,-9.816266993496747,5.002501250625313e-06,0.01,0.0,0,0,0,43.25
81397,0.002541270635317658,0.0009454727363681741,-9.816266993496747,5.002501250625313e-06,0.01,0.0,0,0,0,43.06
81407,0.002541270635317658,0.0009454727363681741,-9.816266993496747,-0.009994997498749375,0.01,0.0,0,0,0,43.37
81417,0.002541270635317658,0.010945472736368176,-9.816266993496747,-0.009994997498749375,0.02,0.0,0,0,0,43.12
81427,0.002541270635317658,0.010945472736368176,-9.816266993496747,-0.009994997498749375,0.02,0.0,0,0,0,43.18
81437,-0.007458729364682337,0.0009454727363681741,-9.816266993496747,-0.009994997498749375,0.02,0.0,0,0,0,43.25
81447,0.002541270635317658,0.0009454727363681741,-9.816266993496747,5.002501250625313e-06,0.0,0.0,0,0,0,43.12
81457,-0.007458729364682337,0.0009454727363681741,-9.816266993496747,5.002501250625313e-06,0.0,0.0,0,0,0,43.18
81467,0.002541270635317658,0.0009454727363681741,-9.806266993496747,-0.009994997498749375,0.0,0.0,0,0,0,43.18
81477,0.002541270635317658,0.0009454727363681741,-9.816266993496747,-0.019994997498749376,-0.02,0.0,0,0,0,43.12
81487,0.002541270635317658,0.0009454727363681741,-9.816266993496747,-0.009994997498749375,-0.04,0.0,0,0,0,43.31
81497,0.002541270635317658,0.0009454727363681741,-9.816266993496747,-0.009994997498749375,-0.04,0.0,0,0,0,43.37
81507,-0.007458729364682337,0.0009454727363681741,-9.816266993496747,-0.029994997498749374,-0.02,0.0,0,0,0,43.56
81517,-0.007458729364682337,0.010945472736368176,-9.826266993496747,-0.049994997498749374,0.0,0.0,0,0,0,43.31
81527,-0.007458729364682337,0.010945472736368176,-9.826266993496747,-0.049994997498749374,0.02,0.0,0,0,0,42.93
81537,-0.007458729364682337,0.010945472736368176,-9.816266993496747,-0.03999499749874937,0.03,0.0,0,0,0,43.18
81547,0.002541270635317658,0.010945472736368176,-9.806266993496747,-0.019994997498749376,0.02,0.0,0,0,0,43.12
81557,0.002541270635317658,0.010945472736368176,-9.806266993496747,-0.009994997498749375,0.01,0.0,0,0,0,43.18
81567,0.002541270635317658,0.010945472736368176,-9.806266993496747,-0.009994997498749375,0.0,0.0,0,0,0,43.31
81577,0.002541270635317658,0.0009454727363681741,-9.806266993496747,-0.009994997498749375,-0.01,0.0,0,0,0,43.37
81587,0.002541270635317658,0.010945472736368176,-9.816266993496747,-0.009994997498749375,-0.03,0.0,0,0,0,43.12
81597,-0.007458729364682337,0.010945472736368176,-9.826266993496747,-0.019994997498749376,-0.03,0.0,0,0,0,43.25
81607,-0.007458729364682337,0.0009454727363681741,-9.826266993496747,-0.029994997498749374,-0.02,0.0,0,0,0,43.25
81617,-0.007458729364682337,0.010945472736368176,-9.826266993496747,-0.049994997498749374,-0.02,0.0,0,0,0,43.18
81627,0.002541270635317658,0.010945472736368176,-9.816266993496747,-0.05999499749874937,-0.03,0.0,0,0,0,43.25
81637,0.002541270635317658,0.010945472736368176,-9.816266993496747,-0.05999499749874937,-0.05,0.0,0,0,0,43.12
81647,0.002541270635317658,0.010945472736368176,-9.816266993496747,-0.05999499749874937,-0.08,0.01,0,0,0,43.56
81657,0.012541270635317653,0.0009454727363681741,-9.816266993496747,-0.049994997498749374,-0.13,0.01,0,0,0,43.37
81667,0.06254127063531767,-0.009054527263631824,-9.806266993496747,-0.03999499749874937,-0.18,0.04,0,0,0,43.18
81677,0.8725412706353176,-0.19905452726363185,-9.806266993496747,5.002501250625313e-06,-0.1,0.39,0,0,0,43.18
81687,1.3125412706353177,-0.19905452726363185,-9.796266993496747,0.04000500250125063,-0.01,0.86,0,0,0,43.37
81697,1.2325412706353176,-0.019054527263631826,-9.816266993496747,0.060005002501250626,0.0,0.29,0,0,0,43.18
81707,1.2225412706353178,0.040945472736368185,-9.826266993496747,0.04000500250125063,0.0,-1.13,0,0,0,43.12
81717,1.2825412706353179,0.07094547273636818,-9.806266993496747,0.020005002501250625,0.01,-2.67,0,0,0,43.37
81727,1.3225412706353175,0.18094547273636816,-9.806266993496747,0.020005002501250625,0.04,-3.94,0,0,0,43.25
81737,1.2425412706353178,0.24094547273636818,-9.816266993496747,0.030005002501250624,0.05,-4.56,0,0,0,43.06
81747,1.1125412706353175,0.20094547273636817,-9.816266993496747,0.010005002501250625,0.04,-4.37,0,0,0,43.18
81757,1.0425412706353177,0.10094547273636818,-9.816266993496747,5.002501250625313e-06,0.03,-3.66,0,0,0,43.18
81767,0.9725412706353177,-0.029054527263631825,-9.816266993496747,-0.019994997498749376,0.02,-2.57,0,0,0,43.43
81777,0.9325412706353177,-0.17905452726363183,-9.816266993496747,-0.03999499749874937,-0.01,-1.16,0,0,0,43.18
81787,0.9325412706353177,-0.21905452726363184,-9.796266993496747,-0.03999499749874937,-0.03,0.0,0,0,0,43.37
81797,0.9525412706353177,-0.19905452726363185,-9.796266993496747,-0.029994997498749374,-0.03,0.8,0,0,0,43.18
81807,0.9925412706353177,-0.17905452726363183,-9.806266993496747,-0.019994997498749376,-0.02,1.14,0,0,0,43.06
81817,0.9725412706353177,-0.10905452726363182,-9.806266993496747,-0.019994997498749376,0.0,1.24,0,0,0,43.12
81827,0.8825412706353176,-0.05905452726363182,-9.806266993496747,-0.009994997498749375,0.0,1.43,0,0,0,43.18
81837,0.7725412706353176,-0.03905452726363182,-9.806266993496747,5.002501250625313e-06,0.0,1.72,0,0,0,43.18
81847,0.7125412706353177,-0.049054527263631825,-9.806266993496747,0.030005002501250624,0.0,2.04,0,0,0,43.25
81857,0.7225412706353177,0.0009454727363681741,-9.806266993496747,0.060005002501250626,0.0,2.08,0,0,0,43.06
81867,0.8225412706353177,0.08094547273636818,-9.826266993496747,0.07000500250125063,0.0,1.38,0,0,0,43.31
81877,0.8525412706353177,0.060945472736368175,-9.826266993496747,0.060005002501250626,0.0,-0.18,0,0,0,43.12
81887,0.7125412706353177,0.05094547273636818,-9.816266993496747,0.020005002501250625,0.02,-1.91,0,0,0,43.18
81897,0.5225412706353176,0.08094547273636818,-9.806266993496747,-0.009994997498749375,0.04,-2.59,0,0,0,43.18
81907,0.36254127063531766,0.09094547273636817,-9.796266993496747,-0.009994997498749375,0.01,-2.36,0,0,0,43.18
81917,0.2625412706353177,0.09094547273636817,-9.796266993496747,0.010005002501250625,-0.02,-1.68,0,0,0,43.12
81927,0.18254127063531767,0.15094547273636816,-9.806266993496747,0.04000500250125063,-0.04,-1.02,0,0,0,43.18
81937,0.15254127063531767,0.20094547273636817,-9.806266993496747,0.010005002501250625,-0.01,-0.17,0,0,0,43.25
81947,0.27254127063531763,0.20094547273636817,-9.786266993496747,0.020005002501250625,0.0,0.77,0,0,0,43.37
81957,0.31254127063531767,0.14094547273636818,-9.796266993496747,0.05000500250125063,-0.03,1.32,0,0,0,43.06
81967,0.2625412706353177,0.040945472736368185,-9.806266993496747,0.10000500250125063,-0.05,1.56,0,0,0,43.0
81977,0.19254127063531767,0.020945472736368178,-9.806266993496747,0.11000500250125063,-0.05,1.66,0,0,0,43.18
81987,0.21254127063531764,-0.009054527263631824,-9.816266993496747,0.12000500250125062,-0.04,1.53,0,0,0,43.31
81997,0.17254127063531766,-0.049054527263631825,-9.826266993496747,0.15000500250125062,-0.05,1.16,0,0,0,43.25
82007,0.11254127063531766,-0.09905452726363183,-9.836266993496746,0.13000500250125063,-0.04,1.05,0,0,0,43.12
82017,0.07254127063531765,-0.049054527263631825,-9.816266993496747,0.11000500250125063,-0.04,1.22,0,0,0,43.25
82027,0.09254127063531767,0.040945472736368185,-9.816266993496747,0.12000500250125062,-0.16,1.41,0,0,0,43.06
82037,0.12254127063531767,0.12094547273636817,-9.826266993496747,0.09000500250125062,-0.22,1.51,0,0,0,43.37
82047,0.15254127063531767,0.16094547273636817,-9.806266993496747,0.020005002501250625,-0.18,1.49,0,0,0,43.18
82057,0.06254127063531767,0.22094547273636816,-9.816266993496747,-0.05999499749874937,-0.06,1.26,0,0,0,42.93
82067,-0.05745872936468234,0.21094547273636816,-9.816266993496747,-0.14999499749874937,0.08,1.21,0,0,0,43.37
82077,-0.047458729364682345,0.18094547273636816,-9.796266993496747,-0.17999499749874937,0.12,1.22,0,0,0,43.06
82087,0.002541270635317658,0.11094547273636819,-9.796266993496747,-0.13999499749874939,0.09,0.99,0,0,0,43.12
82097,-0.05745872936468234,0.030945472736368173,-9.796266993496747,-0.06999499749874938,0.02,0.57,0,0,0,43.43
82107,-0.18745872936468233,-0.029054527263631825,-9.816266993496747,-0.029994997498749374,0.0,0.34,0,0,0,43.12
82117,-0.22745872936468234,-0.029054527263631825,-9.826266993496747,5.002501250625313e-06,0.0,0.49,0,0,0,43.25
82127,-0.12745872936468233,0.040945472736368185,-9.806266993496747,0.020005002501250625,-0.03,0.84,0,0,0,43.12
82137,-0.06745872936468235,0.07094547273636818,-9.836266993496746,0.010005002501250625,-0.02,0.97,0,0,0,43.25
82147,0.15254127063531767,0.14094547273636818,-9.806266993496747,-0.019994997498749376,0.01,0.71,0,0,0,43.31
82157,0.02254127063531766,0.22094547273636816,-9.806266993496747,-0.029994997498749374,0.02,0.16,0,0,0,43.31
82167,-0.15745872936468236,0.20094547273636817,-9.826266993496747,-0.08999499749874937,0.1,0.17,0,0,0,43.31
82177,-0.22745872936468234,0.18094547273636816,-9.806266993496747,-0.13999499749874939,0.16,0.66,0,0,0,43.31
82187,-0.11745872936468235,0.18094547273636816,-9.796266993496747,-0.07999499749874937,0.13,0.99,0,0,0,43.31
82197,-0.10745872936468234,0.19094547273636817,-9.816266993496747,5.002501250625313e-06,0.08,1.05,0,0,0,43.18
82207,-0.10745872936468234,0.16094547273636817,-9.836266993496746,0.020005002501250625,0.08,1.16,0,0,0,43.5
82217,-0.11745872936468235,0.13094547273636817,-9.826266993496747,0.05000500250125063,0.07,1.42,0,0,0,43.18
82227,-0.07745872936468234,0.13094547273636817,-9.806266993496747,0.11000500250125063,0.0,1.44,0,0,0,43.25
82237,-0.11745872936468235,0.11094547273636819,-9.806266993496747,0.17000500250125064,-0.07,1.19,0,0,0,43.25
82247,-0.22745872936468234,0.060945472736368175,-9.816266993496747,0.14000500250125064,-0.11,1.06,0,0,0,43.43
82257,-0.2874587293646823,0.0009454727363681741,-9.826266993496747,0.05000500250125063,-0.07,1.12,0,0,0,43.18
82267,-0.27745872936468235,-0.029054527263631825,-9.826266993496747,5.002501250625313e-06,-0.06,1.11,0,0,0,43.37
82277,-0.34745872936468236,0.0009454727363681741,-9.826266993496747,-0.029994997498749374,-0.02,0.97,0,0,0,43.25
82287,-0.38745872936468234,0.040945472736368185,-9.826266993496747,-0.049994997498749374,0.03,1.15,0,0,0,43.18
82297,-0.31745872936468233,0.10094547273636818,-9.826266993496747,-0.05999499749874937,0.08,1.46,0,0,0,43.25
82307,-0.16745872936468234,0.18094547273636816,-9.816266993496747,-0.07999499749874937,0.09,1.59,0,0,0,42.87
82317,-0.06745872936468235,0.21094547273636816,-9.806266993496747,-0.049994997498749374,0.06,1.52,0,0,0,43.37
82327,0.002541270635317658,0.16094547273636817,-9.806266993496747,-0.009994997498749375,0.03,1.26,0,0,0,43.06
82337,-0.03745872936468234,0.030945472736368173,-9.806266993496747,0.020005002501250625,0.01,0.97,0,0,0,43.25
82347,-0.10745872936468234,-0.12905452726363184,-9.816266993496747,5.002501250625313e-06,0.07,0.98,0,0,0,43.18
82357,-0.05745872936468234,-0.17905452726363183,-9.806266993496747,-0.009994997498749375,0.1,1.06,0,0,0,43.37
82367,0.012541270635317653,-0.07905452726363182,-9.796266993496747,0.030005002501250624,0.03,0.93,0,0,0,43.18
82377,0.07254127063531765,-0.019054527263631826,-9.806266993496747,0.07000500250125063,-0.02,0.76,0,0,0,43.25
82387,0.11254127063531766,0.030945472736368173,-9.816266993496747,0.07000500250125063,-0.01,0.64,0,0,0,43.06
82397,0.08254127063531766,0.10094547273636818,-9.806266993496747,0.020005002501250625,0.03,0.61,0,0,0,43.31
82407,0.02254127063531766,0.12094547273636817,-9.806266993496747,-0.009994997498749375,0.09,0.53,0,0,0,43.25
82417,-0.11745872936468235,0.05094547273636818,-9.806266993496747,-0.029994997498749374,0.07,0.72,0,0,0,43.37
82427,-0.18745872936468233,0.010945472736368176,-9.816266993496747,-0.049994997498749374,0.0,1.0,0,0,0,43.31
82437,-0.16745872936468234,-0.03905452726363182,-9.826266993496747,-0.06999499749874938,-0.06,1.09,0,0,0,43.12
82447,-0.14745872936468235,-0.07905452726363182,-9.826266993496747,-0.09999499749874938,-0.07,0.92,0,0,0,43.43
82457,-0.16745872936468234,-0.10905452726363182,-9.816266993496747,-0.11999499749874937,-0.08,0.79,0,0,0,43.06
82467,0.05254127063531766,-0.11905452726363182,-9.816266993496747,-0.009994997498749375,-0.02,0.55,0,0,0,43.06
82477,0.06254127063531767,-0.14905452726363183,-9.826266993496747,0.020005002501250625,0.02,0.21,0,0,0,43.37
82487,0.11254127063531766,-0.20905452726363183,-9.816266993496747,0.05000500250125063,-0.01,0.12,0,0,0,43.25
82497,0.13254127063531765,-0.18905452726363184,-9.806266993496747,0.07000500250125063,-0.05,0.16,0,0,0,43.25
82507,0.14254127063531766,-0.14905452726363183,-9.816266993496747,0.05000500250125063,-0.07,0.25,0,0,0,43.18
82517,0.16254127063531765,-0.07905452726363182,-9.816266993496747,0.030005002501250624,-0.05,0.4,0,0,0,43.37
82527,0.17254127063531766,-0.029054527263631825,-9.826266993496747,5.002501250625313e-06,0.0,0.58,0,0,0,43.12
82537,0.19254127063531767,0.010945472736368176,-9.826266993496747,5.002501250625313e-06,0.05,0.62,0,0,0,43.5
82547,0.18254127063531767,0.10094547273636818,-9.816266993496747,0.010005002501250625,0.04,0.57,0,0,0,43.31
82557,0.20254127063531768,0.14094547273636818,-9.806266993496747,0.020005002501250625,0.04,0.64,0,0,0,43.12
82567,0.20254127063531768,0.13094547273636817,-9.806266993496747,5.002501250625313e-06,0.07,0.66,0,0,0,43.12
82577,0.13254127063531765,0.13094547273636817,-9.816266993496747,-0.019994997498749376,0.04,0.6,0,0,0,43.25
82587,0.05254127063531766,0.07094547273636818,-9.846266993496746,-0.07999499749874937,0.04,0.69,0,0,0,43.12
82597,0.10254127063531765,-0.05905452726363182,-9.846266993496746,-0.22999499749874938,0.13,0.88,0,0,0,43.06
82607,0.18254127063531767,-0.10905452726363182,-9.806266993496747,-0.21999499749874937,0.09,0.91,0,0,0,43.06
82617,0.19254127063531767,-0.06905452726363183,-9.796266993496747,-0.08999499749874937,-0.03,0.79,0,0,0,43.12
82627,0.17254127063531766,-0.03905452726363182,-9.786266993496747,0.05000500250125063,-0.13,0.83,0,0,0,43.12
82637,0.20254127063531768,-0.07905452726363182,-9.806266993496747,0.11000500250125063,-0.15,0.92,0,0,0,43.12
82647,0.17254127063531766,-0.11905452726363182,-9.806266993496747,0.13000500250125063,-0.14,0.59,0,0,0,43.43
82657,0.06254127063531767,-0.10905452726363182,-9.806266993496747,0.15000500250125062,-0.15,0.1,0,0,0,43.18
82667,0.02254127063531766,-0.13905452726363182,-9.826266993496747,0.11000500250125063,-0.07,-0.1,0,0,0,43.25
82677,0.03254127063531766,-0.16905452726363185,-9.816266993496747,0.060005002501250626,0.0,-0.4,0,0,0,43.12
82687,-0.06745872936468235,-0.07905452726363182,-9.816266993496747,0.05000500250125063,0.0,-0.84,0,0,0,43.18
82697,-0.19745872936468234,0.0009454727363681741,-9.816266993496747,0.060005002501250626,-0.04,-0.81,0,0,0,43.12
82707,-0.19745872936468234,0.020945472736368178,-9.826266993496747,0.09000500250125062,-0.11,-0.37,0,0,0,43.18
82717,-0.08745872936468234,-0.029054527263631825,-9.826266993496747,0.10000500250125063,-0.16,-0.11,0,0,0,43.25
82727,-0.03745872936468234,-0.05905452726363182,-9.826266993496747,0.05000500250125063,-0.12,-0.23,0,0,0,43.31
82737,-0.05745872936468234,-0.019054527263631826,-9.806266993496747,0.030005002501250624,-0.05,-0.55,0,0,0,43.12
82747,-0.16745872936468234,0.040945472736368185,-9.816266993496747,0.04000500250125063,-0.02,-0.83,0,0,0,43.12
82757,-0.21745872936468236,0.030945472736368173,-9.826266993496747,-0.019994997498749376,0.05,-0.79,0,0,0,43.5
82767,-0.15745872936468236,-0.009054527263631824,-9.806266993496747,-0.10999499749874937,0.08,-0.57,0,0,0,43.25
82777,-0.017458729364682346,0.010945472736368176,-9.796266993496747,-0.11999499749874937,0.04,-0.49,0,0,0,43.06
82787,-0.02745872936468234,0.08094547273636818,-9.806266993496747,-0.09999499749874938,0.0,-0.52,0,0,0,43.37
82797,-0.11745872936468235,0.09094547273636817,-9.816266993496747,-0.10999499749874937,0.01,-0.34,0,0,0,43.31
82807,-0.2874587293646823,0.040945472736368185,-9.846266993496746,-0.11999499749874937,0.03,-0.13,0,0,0,43.37
82817,-0.41745872936468237,0.0009454727363681741,-9.826266993496747,-0.13999499749874939,0.07,0.22,0,0,0,43.25
82827,-0.37745872936468233,0.040945472736368185,-9.806266993496747,-0.07999499749874937,0.0,0.6,0,0,0,43.25
82837,-0.2874587293646823,0.12094547273636817,-9.816266993496747,-0.009994997498749375,-0.07,0.93,0,0,0,43.12
82847,-0.16745872936468234,0.15094547273636816,-9.806266993496747,0.010005002501250625,-0.11,1.12,0,0,0,43.18
82857,-0.11745872936468235,0.13094547273636817,-9.796266993496747,0.04000500250125063,-0.11,1.1,0,0,0,43.06
82867,-0.21745872936468236,0.060945472736368175,-9.806266993496747,0.05000500250125063,-0.06,0.94,0,0,0,43.37
82877,-0.32745872936468234,-0.029054527263631825,-9.816266993496747,0.05000500250125063,0.0,0.81,0,0,0,43.5
82887,-0.5274587293646824,-0.12905452726363184,-9.816266993496747,0.07000500250125063,0.06,0.55,0,0,0,43.18
82897,-0.5574587293646823,-0.14905452726363183,-9.826266993496747,0.10000500250125063,0.07,0.25,0,0,0,43.43
82907,-0.5374587293646824,-0.03905452726363182,-9.826266993496747,0.11000500250125063,0.01,0.08,0,0,0,43.25
82917,-0.49745872936468233,0.040945472736368185,-9.816266993496747,0.13000500250125063,-0.02,0.03,0,0,0,43.37
82927,-0.47745872936468237,0.07094547273636818,-9.816266993496747,0.13000500250125063,0.03,0.1,0,0,0,43.18
82937,-0.46745872936468236,0.14094547273636818,-9.806266993496747,0.11000500250125063,0.05,0.43,0,0,0,43.31
82947,-0.38745872936468234,0.20094547273636817,-9.806266993496747,0.09000500250125062,0.03,0.92,0,0,0,43.25
82957,-0.34745872936468236,0.16094547273636817,-9.816266993496747,0.07000500250125063,0.02,1.05,0,0,0,43.12
82967,-0.43745872936468233,0.060945472736368175,-9.826266993496747,0.030005002501250624,0.02,0.88,0,0,0,43.12
82977,-0.5374587293646824,-0.06905452726363183,-9.826266993496747,-0.009994997498749375,0.05,0.57,0,0,0,43.06
82987,-0.6274587293646824,-0.13905452726363182,-9.816266993496747,-0.029994997498749374,0.04,0.3,0,0,0,43.0
82997,-0.6674587293646823,-0.13905452726363182,-9.806266993496747,-0.019994997498749376,0.03,0.0,0,0,0,43.12
83007,-0.7074587293646823,-0.11905452726363182,-9.816266993496747,-0.009994997498749375,0.03,-0.09,0,0,0,43.25
83017,-0.5874587293646824,-0.14905452726363183,-9.826266993496747,5.002501250625313e-06,0.02,0.09,0,0,0,43.25
83027,-0.45745872936468235,-0.10905452726363182,-9.816266993496747,5.002501250625313e-06,0.02,0.07,0,0,0,43.25
83037,-0.46745872936468236,-0.03905452726363182,-9.816266993496747,0.020005002501250625,0.0,-0.15,0,0,0,43.06
83047,-0.5074587293646824,-0.019054527263631826,-9.816266993496747,0.060005002501250626,-0.01,-0.47,0,0,0,43.25
83057,-0.6074587293646824,-0.029054527263631825,-9.826266993496747,0.07000500250125063,-0.01,-0.5,0,0,0,43.06
83067,-0.7074587293646823,-0.05905452726363182,-9.846266993496746,0.04000500250125063,0.02,-0.25,0,0,0,43.37
83077,-0.7074587293646823,-0.049054527263631825,-9.836266993496746,5.002501250625313e-06,0.08,-0.16,0,0,0,43.37
83087,-0.7274587293646824,-0.029054527263631825,-9.836266993496746,-0.009994997498749375,0.11,-0.17,0,0,0,43.37
83097,-0.6974587293646823,-0.029054527263631825,-9.816266993496747,0.010005002501250625,0.13,-0.15,0,0,0,43.37
83107,-0.7274587293646824,-0.05905452726363182,-9.816266993496747,0.07000500250125063,0.12,-0.04,0,0,0,43.25
83117,-0.7174587293646824,-0.08905452726363182,-9.816266993496747,0.11000500250125063,0.13,0.05,0,0,0,43.18
83127,-0.6774587293646823,-0.07905452726363182,-9.826266993496747,0.13000500250125063,0.15,0.22,0,0,0,43.12
83137,-0.43745872936468233,-0.019054527263631826,-9.836266993496746,0.15000500250125062,0.2,0.5,0,0,0,43.12
83147,-0.31745872936468233,0.060945472736368175,-9.826266993496747,0.12000500250125062,0.2,0.5,0,0,0,43.37
83157,-1.8474587293646825,-0.019054527263631826,-9.876266993496747,0.07000500250125063,0.18,-0.51,0,0,0,43.37
83167,-1.3074587293646824,-0.14905452726363183,-9.906266993496747,-0.07999499749874937,0.5,-0.89,0,0,0,43.12
83177,0.39254127063531763,-0.019054527263631826,-9.836266993496746,-0.08999499749874937,0.78,-0.43,0,0,0,43.18
83187,-0.10745872936468234,0.18094547273636816,-9.726266993496747,-0.009994997498749375,0.61,0.17,0,0,0,43.37
83197,-1.4074587293646825,-0.07905452726363182,-9.776266993496746,-0.12999499749874938,0.27,0.28,0,0,0,43.18
83207,-1.1674587293646823,-0.08905452726363182,-9.796266993496747,-0.21999499749874937,0.1,0.26,0,0,0,43.12
83217,-0.5074587293646824,-0.009054527263631824,-9.806266993496747,-0.17999499749874937,0.03,0.11,0,0,0,43.18
83227,-0.07745872936468234,0.0009454727363681741,-9.826266993496747,-0.10999499749874937,0.05,0.01,0,0,0,43.37
83237,0.07254127063531765,-0.009054527263631824,-9.816266993496747,-0.08999499749874937,0.08,-0.02,0,0,0,43.06
83247,0.07254127063531765,-0.009054527263631824,-9.816266993496747,-0.10999499749874937,0.11,-0.02,0,0,0,43.12
83257,0.04254127063531765,0.0009454727363681741,-9.806266993496747,-0.10999499749874937,0.11,-0.01,0,0,0,43.12
83267,0.02254127063531766,0.0009454727363681741,-9.806266993496747,-0.06999499749874938,0.11,0.0,0,0,0,43.06
83277,0.02254127063531766,-0.009054527263631824,-9.816266993496747,-0.03999499749874937,0.12,0.0,0,0,0,43.18
83287,0.03254127063531766,0.0009454727363681741,-9.816266993496747,-0.029994997498749374,0.12,0.0,0,0,0,43.06
83297,0.06254127063531767,0.020945472736368178,-9.796266993496747,5.002501250625313e-06,0.08,0.0,0,0,0,43.31
83307,0.06254127063531767,0.0009454727363681741,-9.786266993496747,0.07000500250125063,0.02,0.0,0,0,0,43.31
83317,0.05254127063531766,-0.009054527263631824,-9.806266993496747,0.12000500250125062,-0.02,0.0,0,0,0,43.25
83327,0.02254127063531766,-0.019054527263631826,-9.826266993496747,0.060005002501250626,0.0,0.0,0,0,0,43.18
83337,0.02254127063531766,-0.009054527263631824,-9.826266993496747,-0.019994997498749376,0.04,0.0,0,0,0,43.06
83347,0.03254127063531766,0.0009454727363681741,-9.816266993496747,-0.03999499749874937,0.06,0.0,0,0,0,43.12
83357,0.03254127063531766,0.0009454727363681741,-9.816266993496747,-0.05999499749874937,0.07,0.0,0,0,0,43.43
83367,0.03254127063531766,-0.009054527263631824,-9.816266993496747,-0.049994997498749374,0.09,0.0,0,0,0,43.18
83377,0.02254127063531766,-0.009054527263631824,-9.826266993496747,-0.06999499749874938,0.13,-0.01,0,0,0,43.5
83387,0.04254127063531765,0.010945472736368176,-9.806266993496747,-0.029994997498749374,0.14,-0.02,0,0,0,43.31
83397,0.04254127063531765,0.010945472736368176,-9.816266993496747,0.060005002501250626,0.12,-0.01,0,0,0,43.18
83407,0.04254127063531765,-0.019054527263631826,-9.856266993496746,0.04000500250125063,0.15,-0.02,0,0,0,43.37
83417,0.05254127063531766,-0.009054527263631824,-9.846266993496746,0.020005002501250625,0.21,-0.05,0,0,0,43.12
83427,0.12254127063531767,-0.029054527263631825,-9.786266993496747,0.08000500250125063,0.22,-0.12,0,0,0,43.06
83437,0.07254127063531765,-0.029054527263631825,-9.766266993496746,0.27000500250125065,0.17,-0.24,0,0,0,43.31
83447,-0.03745872936468234,0.09094547273636817,-9.826266993496747,0.3700050025012506,0.24,-0.22,0,0,0,43.18
83457,0.04254127063531765,0.19094547273636817,-9.786266993496747,1.0600050025012506,0.1,-0.13,0,0,0,43.06
83467,0.04254127063531765,-0.15905452726363184,-9.826266993496747,0.6500050025012506,0.09,-0.12,0,0,0,43.12
83477,0.09254127063531767,-0.08905452726363182,-9.806266993496747,0.15000500250125062,0.06,-0.04,0,0,0,43.12
83487,0.06254127063531767,-0.03905452726363182,-9.806266993496747,-0.009994997498749375,0.04,0.0,0,0,0,43.37
83497,0.05254127063531766,-0.029054527263631825,-9.816266993496747,-0.009994997498749375,0.02,0.0,0,0,0,43.25
83507,0.05254127063531766,-0.029054527263631825,-9.816266993496747,5.002501250625313e-06,0.01,0.0,0,0,0,43.06
83517,0.06254127063531767,-0.029054527263631825,-9.816266993496747,0.010005002501250625,0.01,0.0,0,0,0,43.18
83527,0.06254127063531767,-0.029054527263631825,-9.806266993496747,0.010005002501250625,0.01,0.0,0,0,0,43.12
83537,0.06254127063531767,-0.029054527263631825,-9.816266993496747,0.010005002501250625,0.01,0.0,0,0,0,43.18
83547,0.06254127063531767,-0.029054527263631825,-9.816266993496747,5.002501250625313e-06,0.01,0.0,0,0,0,43.25
83557,0.07254127063531765,-0.029054527263631825,-9.816266993496747,5.002501250625313e-06,0.0,0.0,0,0,0,43.25
83567,0.06254127063531767,-0.029054527263631825,-9.806266993496747,5.002501250625313e-06,0.01,0.0,0,0,0,43.5
83577,0.06254127063531767,-0.029054527263631825,-9.806266993496747,5.002501250625313e-06,0.0,0.0,0,0,0,43.25
83587,0.05254127063531766,-0.029054527263631825,-9.816266993496747,5.002501250625313e-06,0.0,0.0,0,0,0,43.25
83597,0.06254127063531767,-0.029054527263631825,-9.806266993496747,5.002501250625313e-06,0.0,0.0,0,0,0,43.06
83607,0.06254127063531767,-0.029054527263631825,-9.806266993496747,5.002501250625313e-06,0.0,0.0,0,0,0,43.25
83617,0.05254127063531766,-0.029054527263631825,-9.806266993496747,5.002501250625313e-06,0.0,0.0,0,0,0,43.18
83627,0.05254127063531766,-0.029054527263631825,-9.806266993496747,5.002501250625313e-06,0.0,0.0,0,0,0,43.5
83637,0.05254127063531766,-0.029054527263631825,-9.816266993496747,5.002501250625313e-06,0.0,0.0,0,0,0,43.18
83647,0.05254127063531766,-0.029054527263631825,-9.816266993496747,5.002501250625313e-06,0.0,0.0,0,0,0,43.31
83657,0.05254127063531766,-0.029054527263631825,-9.816266993496747,5.002501250625313e-06,0.0,0.0,0,0,0,43.18
83667,0.05254127063531766,-0.029054527263631825,-9.826266993496747,5.002501250625313e-06,0.0,0.0,0,0,0,43.25
83677,0.06254127063531767,-0.029054527263631825,-9.816266993496747,5.002501250625313e-06,0.0,0.0,0,0,0,43.25
83687,0.06254127063531767,-0.029054527263631825,-9.816266993496747,5.002501250625313e-06,0.0,0.0,0,0,0,43.06
83697,0.06254127063531767,-0.029054527263631825,-9.806266993496747,5.002501250625313e-06,0.0,0.0,0,0,0,43.18
83707,0.05254127063531766,-0.029054527263631825,-9.816266993496747,5.002501250625313e-06,0.0,0.0,0,0,0,43.18
83717,0.05254127063531766,-0.029054527263631825,-9.816266993496747,5.002501250625313e-06,0.0,0.0,0,0,0,43.31
83727,0.06254127063531767,-0.029054527263631825,-9.816266993496747,5.002501250625313e-06,0.0,0.0,0,0,0,43.25
83737,0.06254127063531767,-0.029054527263631825,-9.816266993496747,5.002501250625313e-06,0.0,0.0,0,0,0,43.31
83747,0.06254127063531767,-0.029054527263631825,-9.826266993496747,5.002501250625313e-06,0.0,0.0,0,0,0,42.87
83757,0.05254127063531766,-0.029054527263631825,-9.806266993496747,5.002501250625313e-06,0.0,0.0,0,0,0,43.31
83767,0.05254127063531766,-0.029054527263631825,-9.806266993496747,5.002501250625313e-06,0.0,0.0,0,0,0,43.06
83777,0.05254127063531766,-0.029054527263631825,-9.806266993496747,5.002501250625313e-06,0.0,0.0,0,0,0,43.25
83787,0.06254127063531767,-0.029054527263631825,-9.806266993496747,5.002501250625313e-06,0.0,0.0,0,0,0,43.12
83797,0.06254127063531767,-0.029054527263631825,-9.816266993496747,5.002501250625313e-06,0.0,0.0,0,0,0,43.18
83807,0.06254127063531767,-0.029054527263631825,-9.816266993496747,5.002501250625313e-06,0.0,0.0,0,0,0,43.18
83817,0.06254127063531767,-0.029054527263631825,-9.816266993496747,5.002501250625313e-06,0.0,0.0,0,0,0,43.5
83827,0.06254127063531767,-0.029054527263631825,-9.816266993496747,5.002501250625313e-06,0.0,0.0,0,0,0,43.18
83837,0.05254127063531766,-0.029054527263631825,-9.816266993496747,5.002501250625313e-06,0.0,0.0,0,0,0,43.18
83847,0.06254127063531767,-0.029054527263631825,-9.816266993496747,5.002501250625313e-06,0.0,0.0,0,0,0,43.37
83857,0.06254127063531767,-0.029054527263631825,-9.816266993496747,5.002501250625313e-06,0.0,0.0,0,0,0,43.06
83867,0.05254127063531766,-0.029054527263631825,-9.806266993496747,5.002501250625313e-06,0.0,0.0,0,0,0,43.0
83877,0.05254127063531766,-0.029054527263631825,-9.816266993496747,5.002501250625313e-06,0.0,0.0,0,0,0,43.31
83887,0.06254127063531767,-0.029054527263631825,-9.816266993496747,5.002501250625313e-06,0.0,0.0,0,0,0,43.37
83897,0.06254127063531767,-0.029054527263631825,-9.816266993496747,5.002501250625313e-06,0.0,0.0,0,0,0,43.18
83907,0.06254127063531767,-0.029054527263631825,-9.816266993496747,5.002501250625313e-06,0.0,0.0,0,0,0,43.37
83917,0.06254127063531767,-0.029054527263631825,-9.806266993496747,5.002501250625313e-06,0.0,0.0,0,0,0,43.31
83927,0.07254127063531765,-0.029054527263631825,-9.816266993496747,5.002501250625313e-06,0.0,0.0,0,0,0,43.18
83937,0.07254127063531765,-0.029054527263631825,-9.816266993496747,5.002501250625313e-06,0.0,0.0,0,0,0,43.18
83947,0.07254127063531765,-0.029054527263631825,-9.816266993496747,5.002501250625313e-06,0.0,0.0,0,0,0,43.12
83957,0.06254127063531767,-0.029054527263631825,-9.816266993496747,5.002501250625313e-06,0.0,0.0,0,0,0,43.06
83967,0.06254127063531767,-0.029054527263631825,-9.806266993496747,5.002501250625313e-06,0.0,0.0,0,0,0,43.31
83977,0.06254127063531767,-0.029054527263631825,-9.806266993496747,5.002501250625313e-06,0.0,0.0,0,0,0,43.06
83987,0.06254127063531767,-0.029054527263631825,-9.806266993496747,5.002501250625313e-06,0.0,0.0,0,0,0,43.25
83997,0.06254127063531767,-0.029054527263631825,-9.806266993496747,5.002501250625313e-06,0.0,0.0,0,0,0,43.25
84007,0.06254127063531767,-0.029054527263631825,-9.806266993496747,5.002501250625313e-06,0.0,0.0,0,0,0,43.25
84017,0.06254127063531767,-0.029054527263631825,-9.816266993496747,5.002501250625313e-06,0.0,0.0,0,0,0,43.37
84027,0.06254127063531767,-0.029054527263631825,-9.816266993496747,5.002501250625313e-06,0.0,0.0,0,0,0,43.06
84037,0.05254127063531766,-0.029054527263631825,-9.816266993496747,5.002501250625313e-06,0.0,0.0,0,0,0,43.06
84047,0.05254127063531766,-0.029054527263631825,-9.816266993496747,5.002501250625313e-06,0.0,0.0,0,0,0,43.0
84057,0.06254127063531767,-0.029054527263631825,-9.816266993496747,5.002501250625313e-06,0.0,0.0,0,0,0,43.5
84067,0.06254127063531767,-0.029054527263631825,-9.806266993496747,5.002501250625313e-06,0.0,0.0,0,0,0,43.5
84077,0.06254127063531767,-0.029054527263631825,-9.806266993496747,5.002501250625313e-06,0.0,0.0,0,0,0,43.43
84087,0.05254127063531766,-0.019054527263631826,-9.806266993496747,5.002501250625313e-06,0.0,0.0,0,0,0,43.18
84097,0.05254127063531766,-0.029054527263631825,-9.816266993496747,5.002501250625313e-06,0.0,0.0,0,0,0,43.18
84107,0.05254127063531766,-0.029054527263631825,-9.816266993496747,5.002501250625313e-06,0.0,0.0,0,0,0,43.06
84117,0.06254127063531767,-0.029054527263631825,-9.806266993496747,5.002501250625313e-06,0.0,0.0,0,0,0,43.5
84127,0.06254127063531767,-0.029054527263631825,-9.806266993496747,5.002501250625313e-06,0.0,0.0,0,0,0,43.12
84137,0.06254127063531767,-0.029054527263631825,-9.816266993496747,5.002501250625313e-06,0.0,0.0,0,0,0,43.18
84147,0.06254127063531767,-0.029054527263631825,-9.816266993496747,5.002501250625313e-06,0.0,0.0,0,0,0,43.18
84157,0.05254127063531766,-0.029054527263631825,-9.816266993496747,5.002501250625313e-06,0.0,0.0,0,0,0,43.43
84167,0.06254127063531767,-0.029054527263631825,-9.816266993496747,5.002501250625313e-06,0.0,0.0,0,0,0,43.06
84177,0.07254127063531765,-0.029054527263631825,-9.806266993496747,5.002501250625313e-06,0.0,0.0,0,0,0,43.37
84187,0.06254127063531767,-0.029054527263631825,-9.806266993496747,5.002501250625313e-06,0.0,0.0,0,0,0,43.18
84197,0.06254127063531767,-0.029054527263631825,-9.806266993496747,5.002501250625313e-06,0.0,0.0,0,0,0,43.31
84207,0.05254127063531766,-0.029054527263631825,-9.806266993496747,5.002501250625313e-06,0.0,0.0,0,0,0,43.25
84217,0.05254127063531766,-0.029054527263631825,-9.806266993496747,5.002501250625313e-06,0.0,0.0,0,0,0,43.12
84227,0.05254127063531766,-0.029054527263631825,-9.816266993496747,5.002501250625313e-06,0.0,0.0,0,0,0,43.06
84237,0.05254127063531766,-0.029054527263631825,-9.816266993496747,5.002501250625313e-06,0.0,0.0,0,0,0,43.31
84247,0.05254127063531766,-0.029054527263631825,-9.816266993496747,5.002501250625313e-06,0.0,0.0,0,0,0,43.18
84257,0.06254127063531767,-0.029054527263631825,-9.816266993496747,5.002501250625313e-06,0.0,0.0,0,0,0,43.25
84267,0.06254127063531767,-0.029054527263631825,-9.826266993496747,5.002501250625313e-06,0.0,0.0,0,0,0,43.37
84277,0.06254127063531767,-0.029054527263631825,-9.816266993496747,5.002501250625313e-06,0.0,0.0,0,0,0,43.18
84287,0.06254127063531767,-0.029054527263631825,-9.806266993496747,5.002501250625313e-06,0.0,0.0,0,0,0,43.31
84297,0.05254127063531766,-0.029054527263631825,-9.806266993496747,5.002501250625313e-06,0.0,0.0,0,0,0,43.18
84307,0.06254127063531767,-0.029054527263631825,-9.816266993496747,5.002501250625313e-06,0.0,0.0,0,0,0,43.18
84317,0.06254127063531767,-0.029054527263631825,-9.826266993496747,5.002501250625313e-06,0.0,0.0,0,0,0,43.5
84327,0.06254127063531767,-0.029054527263631825,-9.816266993496747,5.002501250625313e-06,0.0,0.0,0,0,0,43.06
84337,0.06254127063531767,-0.029054527263631825,-9.816266993496747,5.002501250625313e-06,0.0,0.0,0,0,0,43.31
84347,0.06254127063531767,-0.029054527263631825,-9.816266993496747,5.002501250625313e-06,0.0,0.0,0,0,0,43.37
84357,0.06254127063531767,-0.029054527263631825,-9.816266993496747,5.002501250625313e-06,0.0,0.0,0,0,0,43.25
84367,0.05254127063531766,-0.029054527263631825,-9.816266993496747,5.002501250625313e-06,0.0,0.0,0,0,0,43.06
84377,0.06254127063531767,-0.029054527263631825,-9.806266993496747,5.002501250625313e-06,0.0,0.0,0,0,0,43.06
84387,0.06254127063531767,-0.029054527263631825,-9.806266993496747,5.002501250625313e-06,0.0,0.0,0,0,0,43.31
84397,0.06254127063531767,-0.029054527263631825,-9.806266993496747,5.002501250625313e-06,0.0,0.0,0,0,0,43.37
84407,0.06254127063531767,-0.029054527263631825,-9.816266993496747,5.002501250625313e-06,0.0,0.0,0,0,0,43.31
84417,0.06254127063531767,-0.029054527263631825,-9.816266993496747,5.002501250625313e-06,0.0,0.0,0,0,0,43.06
84427,0.05254127063531766,-0.029054527263631825,-9.816266993496747,5.002501250625313e-06,-0.01,0.0,0,0,0,43.25
84437,0.06254127063531767,-0.029054527263631825,-9.816266993496747,5.002501250625313e-06,0.0,0.0,0,0,0,43.12
84447,0.06254127063531767,-0.029054527263631825,-9.816266993496747,5.002501250625313e-06,0.0,0.0,0,0,0,43.37
84457,0.06254127063531767,-0.029054527263631825,-9.816266993496747,5.002501250625313e-06,0.0,0.0,0,0,0,43.43
84467,0.06254127063531767,-0.029054527263631825,-9.816266993496747,5.002501250625313e-06,0.0,0.0,0,0,0,43.18
84477,0.05254127063531766,-0.029054527263631825,-9.816266993496747,5.002501250625313e-06,0.0,0.0,0,0,0,43.06
84487,0.06254127063531767,-0.029054527263631825,-9.816266993496747,5.002501250625313e-06,0.0,0.0,0,0,0,43.18
84497,0.06254127063531767,-0.029054527263631825,-9.806266993496747,5.002501250625313e-06,0.0,0.0,0,0,0,43.25
84507,0.06254127063531767,-0.029054527263631825,-9.806266993496747,5.002501250625313e-06,0.0,0.0,0,0,0,43.18
84517,0.06254127063531767,-0.029054527263631825,-9.816266993496747,5.002501250625313e-06,0.0,0.0,0,0,0,43.25
84527,0.06254127063531767,-0.029054527263631825,-9.826266993496747,5.002501250625313e-06,0.0,0.0,0,0,0,43.25
84537,0.06254127063531767,-0.029054527263631825,-9.826266993496747,5.002501250625313e-06,0.0,0.0,0,0,0,43.31
84547,0.06254127063531767,-0.029054527263631825,-9.826266993496747,5.002501250625313e-06,0.0,0.0,0,0,0,43.31
84557,0.06254127063531767,-0.029054527263631825,-9.816266993496747,5.002501250625313e-06,0.0,0.0,0,0,0,43.25
84567,0.06254127063531767,-0.029054527263631825,-9.806266993496747,5.002501250625313e-06,0.0,0.0,0,0,0,43.25
84577,0.06254127063531767,-0.029054527263631825,-9.806266993496747,5.002501250625313e-06,0.0,0.0,0,0,0,43.12
84587,0.05254127063531766,-0.029054527263631825,-9.806266993496747,5.002501250625313e-06,0.0,0.0,0,0,0,43.18
84597,0.05254127063531766,-0.029054527263631825,-9.806266993496747,5.002501250625313e-06,0.0,0.0,0,0,0,43.37
84607,0.05254127063531766,-0.029054527263631825,-9.806266993496747,5.002501250625313e-06,0.0,0.0,0,0,0,43.18
84617,0.06254127063531767,-0.029054527263631825,-9.806266993496747,5.002501250625313e-06,0.0,0.0,0,0,0,43.18
84627,0.06254127063531767,-0.029054527263631825,-9.816266993496747,5.002501250625313e-06,0.0,0.0,0,0,0,43.12
84637,0.06254127063531767,-0.029054527263631825,-9.816266993496747,5.002501250625313e-06,0.0,0.0,0,0,0,43.31
84647,0.06254127063531767,-0.029054527263631825,-9.806266993496747,5.002501250625313e-06,0.0,0.0,0,0,0,43.5
84657,0.05254127063531766,-0.029054527263631825,-9.806266993496747,5.002501250625313e-06,0.0,0.0,0,0,0,43.06
84667,0.06254127063531767,-0.029054527263631825,-9.806266993496747,5.002501250625313e-06,0.0,0.0,0,0,0,43.31
84677,0.06254127063531767,-0.029054527263631825,-9.816266993496747,5.002501250625313e-06,0.0,0.0,0,0,0,43.25
84687,0.06254127063531767,-0.029054527263631825,-9.816266993496747,5.002501250625313e-06,0.0,0.0,0,0,0,43.25
84697,0.06254127063531767,-0.029054527263631825,-9.816266993496747,5.002501250625313e-06,0.0,0.0,0,0,0,43.18
84707,0.07254127063531765,-0.029054527263631825,-9.806266993496747,5.002501250625313e-06,0.0,0.0,0,0,0,43.06
84717,0.06254127063531767,-0.029054527263631825,-9.806266993496747,5.002501250625313e-06,0.0,0.0,0,0,0,43.37
84727,0.06254127063531767,-0.029054527263631825,-9.816266993496747,5.002501250625313e-06,0.0,0.0,0,0,0,43.31
84737,0.06254127063531767,-0.029054527263631825,-9.806266993496747,5.002501250625313e-06,0.0,0.0,0,0,0,43.06
84747,0.06254127063531767,-0.029054527263631825,-9.816266993496747,5.002501250625313e-06,0.0,0.0,0,0,0,43.18
84757,0.06254127063531767,-0.029054527263631825,-9.816266993496747,5.002501250625313e-06,0.0,0.0,0,0,0,43.25
84767,0.06254127063531767,-0.029054527263631825,-9.806266993496747,5.002501250625313e-06,0.0,0.0,0,0,0,43.06
84777,0.06254127063531767,-0.029054527263631825,-9.806266993496747,5.002501250625313e-06,0.0,0.0,0,0,0,43.25
84787,0.05254127063531766,-0.029054527263631825,-9.816266993496747,5.002501250625313e-06,0.0,0.0,0,0,0,43.12
84797,0.05254127063531766,-0.029054527263631825,-9.816266993496747,5.002501250625313e-06,0.0,0.0,0,0,0,43.06
84807,0.06254127063531767,-0.029054527263631825,-9.816266993496747,5.002501250625313e-06,0.0,0.0,0,0,0,43.31
84817,0.06254127063531767,-0.019054527263631826,-9.806266993496747,5.002501250625313e-06,0.0,0.0,0,0,0,43.18
84827,0.06254127063531767,-0.029054527263631825,-9.806266993496747,5.002501250625313e-06,0.0,0.0,0,0,0,43.25
84837,0.06254127063531767,-0.029054527263631825,-9.816266993496747,5.002501250625313e-06,0.0,0.0,0,0,0,43.06
84847,0.06254127063531767,-0.019054527263631826,-9.816266993496747,5.002501250625313e-06,0.0,0.0,0,0,0,43.06
84857,0.06254127063531767,-0.019054527263631826,-9.816266993496747,5.002501250625313e-06,0.0,0.0,0,0,0,43.25
84867,0.07254127063531765,-0.029054527263631825,-9.816266993496747,5.002501250625313e-06,0.0,0.0,0,0,0,43.18
84877,0.06254127063531767,-0.029054527263631825,-9.826266993496747,5.002501250625313e-06,0.0,0.0,0,0,0,43.18
84887,0.06254127063531767,-0.029054527263631825,-9.816266993496747,5.002501250625313e-06,0.0,0.0,0,0,0,43.18
84897,0.06254127063531767,-0.029054527263631825,-9.816266993496747,5.002501250625313e-06,0.0,0.0,0,0,0,43.06
84907,0.05254127063531766,-0.029054527263631825,-9.816266993496747,5.002501250625313e-06,0.0,0.0,0,0,0,43.18
84917,0.05254127063531766,-0.029054527263631825,-9.816266993496747,5.002501250625313e-06,0.0,0.0,0,0,0,43.31
84927,0.05254127063531766,-0.029054527263631825,-9.806266993496747,5.002501250625313e-06,0.0,0.0,0,0,0,43.37
84937,0.06254127063531767,-0.029054527263631825,-9.806266993496747,5.002501250625313e-06,0.0,0.0,0,0,0,43.56
84947,0.06254127063531767,-0.029054527263631825,-9.796266993496747,5.002501250625313e-06,0.0,0.0,0,0,0,43.37
84957,0.06254127063531767,-0.029054527263631825,-9.806266993496747,5.002501250625313e-06,0.0,0.0,0,0,0,43.18
84967,0.06254127063531767,-0.029054527263631825,-9.806266993496747,5.002501250625313e-06,0.0,0.0,0,0,0,43.18
84977,0.06254127063531767,-0.029054527263631825,-9.816266993496747,5.002501250625313e-06,0.0,0.0,0,0,0,43.25
84987,0.06254127063531767,-0.029054527263631825,-9.816266993496747,5.002501250625313e-06,0.0,0.0,0,0,0,43.25
84997,0.06254127063531767,-0.029054527263631825,-9.816266993496747,5.002501250625313e-06,0.0,0.0,0,0,0,43.12
85007,0.06254127063531767,-0.029054527263631825,-9.806266993496747,5.002501250625313e-06,0.0,0.0,0,0,0,43.31
85017,0.05254127063531766,-0.029054527263631825,-9.806266993496747,5.002501250625313e-06,0.0,0.0,0,0,0,43.18
85027,0.05254127063531766,-0.029054527263631825,-9.806266993496747,5.002501250625313e-06,0.0,0.0,0,0,0,43.06
85037,0.05254127063531766,-0.029054527263631825,-9.816266993496747,5.002501250625313e-06,0.0,0.0,0,0,0,43.37
85047,0.06254127063531767,-0.029054527263631825,-9.816266993496747,5.002501250625313e-06,0.0,0.0,0,0,0,43.12
85057,0.06254127063531767,-0.029054527263631825,-9.816266993496747,5.002501250625313e-06,0.0,0.0,0,0,0,43.31
85067,0.07254127063531765,-0.029054527263631825,-9.816266993496747,5.002501250625313e-06,0.0,0.0,0,0,0,43.18
85077,0.06254127063531767,-0.019054527263631826,-9.816266993496747,5.002501250625313e-06,0.0,0.0,0,0,0,43.5
85087,0.06254127063531767,-0.019054527263631826,-9.816266993496747,5.002501250625313e-06,0.0,0.0,0,0,0,43.43
85097,0.05254127063531766,-0.019054527263631826,-9.816266993496747,5.002501250625313e-06,0.0,0.0,0,0,0,43.18
85107,0.04254127063531765,-0.029054527263631825,-9.816266993496747,5.002501250625313e-06,0.0,0.0,0,0,0,43.25
85117,0.05254127063531766,-0.029054527263631825,-9.806266993496747,5.002501250625313e-06,0.0,0.0,0,0,0,43.37
85127,0.05254127063531766,-0.029054527263631825,-9.806266993496747,5.002501250625313e-06,0.0,0.0,0,0,0,43.25
85137,0.06254127063531767,-0.029054527263631825,-9.806266993496747,5.002501250625313e-06,0.0,0.0,0,0,0,43.37
85147,0.06254127063531767,-0.029054527263631825,-9.806266993496747,5.002501250625313e-06,0.0,0.0,0,0,0,43.31
85157,0.06254127063531767,-0.029054527263631825,-9.816266993496747,5.002501250625313e-06,0.0,0.0,0,0,0,43.12
85167,0.06254127063531767,-0.029054527263631825,-9.816266993496747,5.002501250625313e-06,0.0,0.0,0,0,0,43.31
85177,0.06254127063531767,-0.029054527263631825,-9.816266993496747,5.002501250625313e-06,0.0,0.0,0,0,0,43.37
85187,0.06254127063531767,-0.029054527263631825,-9.806266993496747,5.002501250625313e-06,0.0,0.0,0,0,0,43.25
85197,0.06254127063531767,-0.029054527263631825,-9.806266993496747,5.002501250625313e-06,0.0,0.0,0,0,0,43.5
85207,0.06254127063531767,-0.029054527263631825,-9.816266993496747,5.002501250625313e-06,0.0,0.0,0,0,0,43.06
85217,0.06254127063531767,-0.029054527263631825,-9.816266993496747,5.002501250625313e-06,0.0,0.0,0,0,0,43.18
85227,0.05254127063531766,-0.029054527263631825,-9.806266993496747,5.002501250625313e-06,0.0,0.0,0,0,0,43.37
85237,0.06254127063531767,-0.029054527263631825,-9.806266993496747,5.002501250625313e-06,0.0,0.0,0,0,0,43.12
85247,0.06254127063531767,-0.029054527263631825,-9.806266993496747,5.002501250625313e-06,0.0,0.0,0,0,0,43.06
85257,0.06254127063531767,-0.029054527263631825,-9.816266993496747,5.002501250625313e-06,0.0,0.0,0,0,0,43.25
85267,0.05254127063531766,-0.029054527263631825,-9.816266993496747,5.002501250625313e-06,0.0,0.0,0,0,0,43.25
85277,0.05254127063531766,-0.029054527263631825,-9.816266993496747,5.002501250625313e-06,0.0,0.0,0,0,0,43.5
85287,0.06254127063531767,-0.019054527263631826,-9.816266993496747,5.002501250625313e-06,0.0,0.0,0,0,0,43.31
85297,0.06254127063531767,-0.029054527263631825,-9.816266993496747,5.002501250625313e-06,0.0,0.0,0,0,0,43.06
85307,0.06254127063531767,-0.029054527263631825,-9.816266993496747,5.002501250625313e-06,0.0,0.0,0,0,0,43.18
85317,0.06254127063531767,-0.029054527263631825,-9.816266993496747,5.002501250625313e-06,-0.01,0.0,0,0,0,43.31
85327,0.06254127063531767,-0.029054527263631825,-9.816266993496747,5.002501250625313e-06,0.0,0.0,0,0,0,43.31
85337,0.06254127063531767,-0.029054527263631825,-9.826266993496747,5.002501250625313e-06,0.0,0.0,0,0,0,43.31
85347,0.06254127063531767,-0.029054527263631825,-9.816266993496747,5.002501250625313e-06,0.0,0.0,0,0,0,43.06
85357,0.06254127063531767,-0.029054527263631825,-9.816266993496747,5.002501250625313e-06,0.0,0.0,0,0,0,43.06
85367,0.06254127063531767,-0.029054527263631825,-9.806266993496747,5.002501250625313e-06,0.0,0.0,0,0,0,42.93
85377,0.06254127063531767,-0.029054527263631825,-9.816266993496747,5.002501250625313e-06,0.0,0.0,0,0,0,43.12
85387,0.06254127063531767,-0.029054527263631825,-9.816266993496747,5.002501250625313e-06,0.0,0.0,0,0,0,43.18
85397,0.06254127063531767,-0.029054527263631825,-9.816266993496747,5.002501250625313e-06,0.0,0.0,0,0,0,43.18
85407,0.06254127063531767,-0.029054527263631825,-9.816266993496747,5.002501250625313e-06,0.0,0.0,0,0,0,43.56
85417,0.05254127063531766,-0.029054527263631825,-9.816266993496747,5.002501250625313e-06,0.0,0.0,0,0,0,43.31
85427,0.06254127063531767,-0.029054527263631825,-9.816266993496747,5.002501250625313e-06,0.0,0.0,0,0,0,43.31
85437,0.06254127063531767,-0.029054527263631825,-9.806266993496747,5.002501250625313e-06,0.0,0.0,0,0,0,43.18
85447,0.05254127063531766,-0.029054527263631825,-9.816266993496747,5.002501250625313e-06,0.0,0.0,0,0,0,43.31
85457,0.05254127063531766,-0.029054527263631825,-9.816266993496747,5.002501250625313e-06,0.0,0.0,0,0,0,43.18
85467,0.05254127063531766,-0.029054527263631825,-9.806266993496747,5.002501250625313e-06,0.0,0.0,0,0,0,43.37
85477,0.06254127063531767,-0.029054527263631825,-9.806266993496747,5.002501250625313e-06,0.0,0.0,0,0,0,43.18
85487,0.06254127063531767,-0.019054527263631826,-9.816266993496747,5.002501250625313e-06,0.0,0.0,0,0,0,43.5
85497,0.06254127063531767,-0.029054527263631825,-9.816266993496747,5.002501250625313e-06,-0.01,0.0,0,0,0,43.06
85507,0.06254127063531767,-0.029054527263631825,-9.806266993496747,5.002501250625313e-06,0.0,0.0,0,0,0,43.25
85517,0.05254127063531766,-0.029054527263631825,-9.806266993496747,5.002501250625313e-06,0.0,0.0,0,0,0,43.37
85527,0.06254127063531767,-0.029054527263631825,-9.806266993496747,5.002501250625313e-06,0.0,0.0,0,0,0,43.43
85537,0.06254127063531767,-0.029054527263631825,-9.806266993496747,5.002501250625313e-06,0.0,0.0,0,0,0,43.06
85547,0.06254127063531767,-0.029054527263631825,-9.816266993496747,5.002501250625313e-06,0.0,0.0,0,0,0,43.31
85557,0.05254127063531766,-0.029054527263631825,-9.816266993496747,5.002501250625313e-06,0.0,0.0,0,0,0,43.18
85567,0.06254127063531767,-0.029054527263631825,-9.816266993496747,5.002501250625313e-06,0.0,0.0,0,0,0,43.25
85577,0.06254127063531767,-0.029054527263631825,-9.806266993496747,5.002501250625313e-06,0.0,0.0,0,0,0,43.25
85587,0.06254127063531767,-0.029054527263631825,-9.816266993496747,5.002501250625313e-06,0.0,0.0,0,0,0,43.06
85597,0.06254127063531767,-0.029054527263631825,-9.806266993496747,5.002501250625313e-06,0.0,0.0,0,0,0,43.25
85607,0.06254127063531767,-0.029054527263631825,-9.806266993496747,5.002501250625313e-06,0.0,0.0,0,0,0,43.31
85617,0.06254127063531767,-0.029054527263631825,-9.806266993496747,5.002501250625313e-06,0.0,0.0,0,0,0,43.37
85627,0.07254127063531765,-0.019054527263631826,-9.806266993496747,5.002501250625313e-06,0.0,0.0,0,0,0,43.06
85637,0.06254127063531767,-0.019054527263631826,-9.816266993496747,5.002501250625313e-06,0.0,0.0,0,0,0,43.31
85647,0.05254127063531766,-0.029054527263631825,-9.816266993496747,5.002501250625313e-06,0.0,0.0,0,0,0,43.18
85657,0.05254127063531766,-0.029054527263631825,-9.826266993496747,5.002501250625313e-06,0.0,0.0,0,0,0,43.31
85667,0.05254127063531766,-0.029054527263631825,-9.816266993496747,5.002501250625313e-06,0.0,0.0,0,0,0,43.06
85677,0.06254127063531767,-0.029054527263631825,-9.826266993496747,5.002501250625313e-06,0.0,0.0,0,0,0,43.18
85687,0.06254127063531767,-0.019054527263631826,-9.826266993496747,5.002501250625313e-06,0.0,0.0,0,0,0,43.25
85697,0.06254127063531767,-0.029054527263631825,-9.826266993496747,5.002501250625313e-06,0.0,0.0,0,0,0,43.37
85707,0.06254127063531767,-0.029054527263631825,-9.816266993496747,5.002501250625313e-06,0.0,0.0,0,0,0,43.06
85717,0.06254127063531767,-0.029054527263631825,-9.816266993496747,5.002501250625313e-06,0.0,0.0,0,0,0,43.06
85727,0.06254127063531767,-0.029054527263631825,-9.806266993496747,5.002501250625313e-06,0.0,0.0,0,0,0,43.0
85737,0.06254127063531767,-0.029054527263631825,-9.806266993496747,5.002501250625313e-06,0.0,0.0,0,0,0,43.37
85747,0.06254127063531767,-0.029054527263631825,-9.806266993496747,5.002501250625313e-06,0.0,0.0,0,0,0,43.18
85757,0.08254127063531766,0.0009454727363681741,-9.756266993496746,0.04000500250125063,-0.02,0.0,0,0,0,43.18
85767,0.15254127063531767,0.040945472736368185,-9.686266993496746,0.3700050025012506,-0.36,0.01,0,0,0,43.12
85777,0.06254127063531767,-0.07905452726363182,-9.826266993496747,0.4200050025012506,-0.57,0.01,0,0,0,43.31
85787,-0.017458729364682346,-0.08905452726363182,-9.906266993496747,5.002501250625313e-06,-0.3,0.0,0,0,0,43.18
85797,0.002541270635317658,-0.029054527263631825,-9.886266993496747,-0.17999499749874937,0.0,0.0,0,0,0,43.31
85807,0.03254127063531766,-0.029054527263631825,-9.826266993496747,-0.15999499749874938,0.11,0.0,0,0,0,43.43
85817,0.05254127063531766,-0.029054527263631825,-9.806266993496747,-0.12999499749874938,0.1,0.0,0,0,0,43.25
85827,0.04254127063531765,-0.029054527263631825,-9.816266993496747,-0.09999499749874938,0.08,0.0,0,0,0,43.06
85837,0.02254127063531766,-0.019054527263631826,-9.826266993496747,-0.029994997498749374,0.07,0.0,0,0,0,43.12
85847,-0.047458729364682345,-0.009054527263631824,-9.816266993496747,-0.009994997498749375,0.09,-0.01,0,0,0,43.12
85857,-0.4874587293646823,0.11094547273636819,-9.806266993496747,-0.049994997498749374,0.09,-0.1,0,0,0,43.5
85867,-1.3874587293646825,0.39094547273636815,-9.756266993496746,-0.11999499749874937,0.03,-0.46,0,0,0,43.43
85877,-1.6274587293646823,0.35094547273636817,-9.736266993496747,-0.17999499749874937,-0.2,-1.35,0,0,0,43.25
85887,-1.2074587293646823,0.030945472736368173,-9.696266993496746,-0.35999499749874936,-0.58,-2.71,0,0,0,43.37
85897,-0.4274587293646823,-0.16905452726363185,-9.906266993496747,-0.34999499749874935,-0.66,-3.8,0,0,0,43.37
85907,-0.16745872936468234,-0.2690545272636318,-9.896266993496747,-0.22999499749874938,-0.29,-4.2,0,0,0,43.06
85917,-0.7274587293646824,-0.21905452726363184,-9.826266993496747,-0.14999499749874937,-0.19,-4.28,0,0,0,43.37
85927,-1.1674587293646823,-0.19905452726363185,-9.836266993496746,-0.09999499749874938,-0.25,-4.31,0,0,0,43.12
85937,-1.2574587293646822,-0.14905452726363183,-9.826266993496747,-0.05999499749874937,-0.29,-4.32,0,0,0,43.31
85947,-1.1574587293646825,-0.20905452726363183,-9.836266993496746,-0.05999499749874937,-0.3,-4.19,0,0,0,43.25
85957,-0.9774587293646824,-0.2690545272636318,-9.836266993496746,-0.049994997498749374,-0.27,-3.87,0,0,0,43.06
85967,-0.7874587293646823,-0.17905452726363183,-9.836266993496746,-0.029994997498749374,-0.23,-3.53,0,0,0,43.06
85977,-0.6374587293646824,-0.009054527263631824,-9.836266993496746,-0.009994997498749375,-0.19,-3.13,0,0,0,43.12
85987,-0.5574587293646823,0.05094547273636818,-9.826266993496747,5.002501250625313e-06,-0.15,-2.44,0,0,0,43.25
85997,-0.6074587293646824,0.08094547273636818,-9.826266993496747,0.010005002501250625,-0.12,-1.55,0,0,0,43.25
86007,-0.6374587293646824,0.12094547273636817,-9.816266993496747,0.020005002501250625,-0.11,-0.75,0,0,0,43.06
86017,-0.6874587293646823,0.20094547273636817,-9.826266993496747,0.04000500250125063,-0.09,-0.1,0,0,0,43.06
86027,-0.7174587293646824,0.2509454727363682,-9.806266993496747,0.05000500250125063,-0.09,0.35,0,0,0,43.37
86037,-0.7974587293646823,0.14094547273636818,-9.816266993496747,0.05000500250125063,-0.11,0.56,0,0,0,43.12
86047,-0.8874587293646824,-0.049054527263631825,-9.816266993496747,0.010005002501250625,-0.12,0.42,0,0,0,43.06
86057,-1.0274587293646822,-0.029054527263631825,-9.816266993496747,-0.019994997498749376,-0.13,0.03,0,0,0,43.25
86067,-1.0874587293646822,0.010945472736368176,-9.816266993496747,-0.05999499749874937,-0.14,-0.14,0,0,0,43.25
86077,-0.9474587293646823,-0.03905452726363182,-9.816266993496747,-0.08999499749874937,-0.13,0.01,0,0,0,43.18
86087,-0.6574587293646823,-0.029054527263631825,-9.816266993496747,-0.08999499749874937,-0.13,0.27,0,0,0,43.06
86097,-0.38745872936468234,0.05094547273636818,-9.826266993496747,-0.12999499749874938,-0.06,0.17,0,0,0,43.31
86107,-0.24745872936468236,0.12094547273636817,-9.836266993496746,-0.17999499749874937,0.05,-0.32,0,0,0,42.93
86117,-0.38745872936468234,0.13094547273636817,-9.806266993496747,-0.21999499749874937,0.14,-0.86,0,0,0,43.31
86127,-0.4274587293646823,0.060945472736368175,-9.816266993496747,-0.22999499749874938,0.06,-1.18,0,0,0,43.31
86137,-0.3674587293646823,0.05094547273636818,-9.816266993496747,-0.19999499749874938,0.01,-1.37,0,0,0,43.06
86147,-0.34745872936468236,0.11094547273636819,-9.816266993496747,-0.16999499749874938,0.06,-1.69,0,0,0,43.18
86157,-0.24745872936468236,0.17094547273636818,-9.806266993496747,-0.14999499749874937,0.16,-2.26,0,0,0,43.12
86167,-0.35745872936468237,0.20094547273636817,-9.796266993496747,-0.08999499749874937,0.17,-2.57,0,0,0,43.37
86177,-0.45745872936468235,0.15094547273636816,-9.806266993496747,-0.05999499749874937,0.14,-2.16,0,0,0,43.18
86187,-0.45745872936468235,-0.029054527263631825,-9.796266993496747,-0.029994997498749374,0.07,-1.05,0,0,0,43.18
86197,-0.2974587293646823,-0.2690545272636318,-9.816266993496747,5.002501250625313e-06,0.0,-0.03,0,0,0,43.18
86207,-0.07745872936468234,-0.3890545272636318,-9.826266993496747,0.060005002501250626,-0.08,0.28,0,0,0,43.12
86217,-0.017458729364682346,-0.21905452726363184,-9.836266993496746,0.12000500250125062,-0.1,0.0,0,0,0,43.43
86227,-0.09745872936468235,0.05094547273636818,-9.826266993496747,0.16000500250125063,-0.05,-0.2,0,0,0,43.31
86237,-0.20745872936468235,0.24094547273636818,-9.826266993496747,0.16000500250125063,0.04,0.0,0,0,0,43.25
86247,-0.33745872936468235,0.2509454727363682,-9.816266993496747,0.14000500250125064,0.1,0.43,0,0,0,43.12
86257,-0.4274587293646823,0.20094547273636817,-9.806266993496747,0.09000500250125062,0.1,0.88,0,0,0,43.12
86267,-0.40745872936468236,0.020945472736368178,-9.796266993496747,0.030005002501250624,0.0,1.11,0,0,0,43.18
86277,-0.3074587293646823,-0.2590545272636318,-9.806266993496747,5.002501250625313e-06,-0.06,0.77,0,0,0,43.18
86287,-0.23745872936468235,-0.40905452726363184,-9.836266993496746,-0.049994997498749374,-0.03,0.11,0,0,0,43.06
86297,-0.22745872936468234,-0.36905452726363186,-9.836266993496746,-0.12999499749874938,0.0,-0.44,0,0,0,43.25
86307,-0.25745872936468234,-0.17905452726363183,-9.826266993496747,-0.16999499749874938,-0.05,-0.46,0,0,0,43.25
86317,-0.22745872936468234,-0.049054527263631825,-9.806266993496747,-0.15999499749874938,-0.11,0.16,0,0,0,43.18
86327,-0.15745872936468236,-0.03905452726363182,-9.816266993496747,-0.13999499749874939,-0.09,0.8,0,0,0,43.25
86337,-0.12745872936468233,-0.029054527263631825,-9.826266993496747,-0.14999499749874937,0.05,0.95,0,0,0,43.06
86347,-0.3074587293646823,0.05094547273636818,-9.786266993496747,-0.07999499749874937,0.03,0.69,0,0,0,43.12
86357,-0.41745872936468237,0.14094547273636818,-9.796266993496747,5.002501250625313e-06,-0.05,0.86,0,0,0,43.25
86367,-0.44745872936468234,0.17094547273636818,-9.816266993496747,0.07000500250125063,0.0,1.6,0,0,0,43.18
86377,-0.5474587293646823,0.12094547273636817,-9.816266993496747,0.14000500250125064,0.1,2.48,0,0,0,43.18
86387,-0.5274587293646824,0.020945472736368178,-9.826266993496747,0.24000500250125062,0.14,3.27,0,0,0,43.06
86397,-0.5474587293646823,-0.19905452726363185,-9.846266993496746,0.27000500250125065,0.21,3.37,0,0,0,43.12
86407,-0.5174587293646824,-0.42905452726363186,-9.816266993496747,0.19000500250125063,0.31,2.59,0,0,0,43.25
86417,-0.5474587293646823,-0.5490545272636318,-9.786266993496747,0.08000500250125063,0.18,1.74,0,0,0,43.06
86427,-0.46745872936468236,-0.45905452726363183,-9.796266993496747,0.05000500250125063,0.03,1.16,0,0,0,43.12
86437,-0.20745872936468235,-0.27905452726363184,-9.806266993496747,0.05000500250125063,0.03,0.89,0,0,0,43.5
86447,0.002541270635317658,-0.10905452726363182,-9.806266993496747,0.05000500250125063,-0.01,0.72,0,0,0,43.18
86457,0.09254127063531767,0.030945472736368173,-9.806266993496747,0.04000500250125063,-0.03,0.39,0,0,0,43.25
86467,0.08254127063531766,0.11094547273636819,-9.816266993496747,0.08000500250125063,0.03,0.13,0,0,0,43.25
86477,0.08254127063531766,0.21094547273636816,-9.816266993496747,0.12000500250125062,-0.03,-0.04,0,0,0,43.31
86487,0.12254127063531767,0.29094547273636817,-9.826266993496747,0.12000500250125062,-0.13,-0.27,0,0,0,43.5
86497,0.012541270635317653,0.34094547273636816,-9.836266993496746,0.08000500250125063,-0.22,-0.67,0,0,0,43.43
86507,-0.03745872936468234,0.34094547273636816,-9.856266993496746,-0.03999499749874937,-0.25,-0.98,0,0,0,43.31
86517,0.08254127063531766,0.32094547273636814,-9.836266993496746,-0.15999499749874938,-0.18,-1.09,0,0,0,43.5
86527,0.07254127063531765,0.39094547273636815,-9.806266993496747,-0.19999499749874938,-0.11,-1.08,0,0,0,43.31
86537,-0.06745872936468235,0.5009454727363682,-9.786266993496747,-0.14999499749874937,-0.09,-0.56,0,0,0,43.31
86547,-0.07745872936468234,0.4909454727363682,-9.796266993496747,-0.10999499749874937,-0.06,0.44,0,0,0,43.12
86557,-0.10745872936468234,0.40094547273636816,-9.776266993496746,-0.019994997498749376,-0.09,1.4,0,0,0,43.37
