Timestamp,Accelerometer_X,Accelerometer_Y,Accelerometer_Z,Gyroscope_X,Gyroscope_Y,Gyroscope_Z,Magnetometer_X,Magnetometer_Y,Magnetometer_Z,Abs_Pressure,Temperature
75662598,-0.0016830766302398104,0.0031377892305756994,9.818331549200657,-0.0002756041660242039,-2.0518209438752957e-05,0.00018235443861130783,155815.015625,99418.5546875,285316.28125,997.83935546875,45.39236068725586
75667708,-0.0034052783352187532,0.008499569754829545,9.813756773504856,-0.00028635584859068277,-0.0001273645847132249,-3.595449595223023e-05,155815.015625,99418.5546875,285316.28125,997.83935546875,45.39236068725586
75672588,-0.001920399973993625,0.006737224321594376,9.812747786078098,-0.00012833641195094915,-0.00022339340090097917,-0.00014865147238224587,155815.015625,99418.5546875,285316.28125,997.83935546875,45.39236068725586
75677818,-0.004469727883940067,0.011751792888870377,9.81261713269675,-1.5826514943109414e-05,-0.0004867841433761461,-0.0002170084538832291,155815.015625,99418.5546875,285316.28125,997.83935546875,45.39236068725586
75682804,-0.0072017589312842745,0.011997900467147965,9.814938375982884,6.314479359651212e-05,-0.0004289268925813778,-0.00015507004570308914,155815.015625,99418.5546875,285316.28125,997.83935546875,45.39236068725586
75687583,-0.005726037333612766,0.009386635880699296,9.811661551031712,0.0003851433564640325,-0.0002443666979698284,1.1630309590780365e-05,155815.015625,99418.5546875,285316.28125,997.83935546875,45.39236068725586
75692712,0.0005283749002167326,0.008700169186821122,9.816222975287083,0.0005833133462082338,-8.054267696848197e-05,-9.22972161518394e-05,155815.015625,99418.5546875,285316.28125,997.83935546875,45.39236068725586
75717741,0.0014471283453652006,0.00467393503688826,9.813446829352024,0.00011157891894334223,0.0005996264864197181,-0.00029872688753157696,155178.625,96660.828125,292066.28125,997.8292846679688,45.38860321044922
75727751,-0.00910703630269083,0.012976519327392716,9.808857748541477,0.00028441642534096954,0.0006947172279441909,-0.0005846019688490762,155178.625,96660.828125,292066.28125,997.8292846679688,45.38860321044922
75737582,-0.008809244046812381,0.00665900812648787,9.809488127264622,0.0006728204887557518,0.0007191308014998393,-4.3467784389851895e-05,155178.625,96660.828125,292066.28125,997.8292846679688,45.38860321044922
75747593,-0.004965012679701175,-0.003180474478969436,9.812831709417942,0.0004399408633552235,0.00041870878170898124,0.0002468536928333358,155178.625,96660.828125,292066.28125,997.8292846679688,45.38860321044922
75757758,-0.0026324519616416353,-0.004460327763328414,9.818390677008274,7.179783169056516e-05,0.000256261189989298,2.0832574936955774e-05,155178.625,96660.828125,292066.28125,997.8292846679688,45.38860321044922
75767766,0.005469652106160794,-0.004890174109706741,9.823783705267552,0.00021704216377918837,-0.00017912848294058872,-0.0002038989390442132,155178.625,96660.828125,292066.28125,997.8292846679688,45.38860321044922
75777812,0.00360554664313284,0.006931103329887528,9.82101614240134,0.0002262745681881648,0.0003003400253337057,-0.00012051255032047471,155178.625,96660.828125,292066.28125,997.8292846679688,45.38860321044922
75787596,-0.0010198855501464266,0.007698140602340836,9.820072958502415,9.144864342750277e-05,9.988751675423177e-05,-0.00022047562230937025,155178.625,96660.828125,292066.28125,997.8292846679688,45.38860321044922
75797563,0.0002741908925720793,0.0019847373773957677,9.813178846869114,0.00025730131782700536,-0.0002225596052622242,-0.0002481240284126236,161330.4375,95812.3203125,281566.25,997.8530883789062,45.39773178100586
75807812,0.002802403857106839,0.0008810307195092626,9.80650598767722,0.00014560227172558425,8.011382500712702e-05,-0.0005979290784765019,161330.4375,95812.3203125,281566.25,997.8530883789062,45.39773178100586
75817764,-0.0010559761625579256,0.0008853073527718969,9.80341417554343,-6.547380696355884e-06,0.00022802690195107775,0.0002822581824418173,161330.4375,95812.3203125,281566.25,997.8530883789062,45.39773178100586
75827795,-0.0005369612675956148,0.0023075412323380895,9.803330252203587,-1.7473196937425582e-05,0.0002585654493859218,0.00012886238403525362,161330.4375,95812.3203125,281566.25,997.8530883789062,45.39773178100586
75837555,0.00084632097660986,0.004651866417160172,9.806096861395481,-0.00019660710059462818,7.43890469866054e-05,-0.00021437956308573326,161330.4375,95812.3203125,281566.25,997.8530883789062,45.39773178100586
75847552,-0.010077578733568515,0.0025309543421174474,9.808034727606419,-0.00013042015890015992,-0.0002120213992921455,2.6447940744854117e-05,161330.4375,95812.3203125,281566.25,997.8530883789062,45.39773178100586
75857822,-0.013087620745306339,-0.003742613334426742,9.810543844732884,0.00024854052643866507,-0.00016531111928911937,0.00025436390717886547,161330.4375,95812.3203125,281566.25,997.8530883789062,45.39773178100586
75867733,-0.005290126214628543,0.006335503916969437,9.809548208746556,0.0004433674901455384,-0.0002026169039336784,0.0004168621177356706,161330.4375,95812.3203125,281566.25,997.8530883789062,45.39773178100586
75877759,-0.004249451468592014,0.0024121920874024816,9.812762091192845,-0.00011252932127455953,-0.0004741523242583318,0.0005371384119186567,161330.4375,95812.3203125,281566.25,997.8530883789062,45.39773178100586
75887590,0.005097957541341458,-0.0008063991258238368,9.80811388257468,-0.0006993987492088486,-0.000598981796300952,0.00012001992729865173,161330.4375,95812.3203125,281566.25,997.8530883789062,45.39773178100586
75897501,-0.0002490410310080904,-0.008851282734641891,9.802856276068333,-0.0006793738586630929,-4.747192166091932e-05,8.07459488257316e-05,151784.5,96872.9609375,282616.28125,997.8565673828125,45.39504623413086
75907753,-0.004343805621271457,-0.0009476472327803187,9.803948233160618,-0.0006083214550081898,0.0004029423636356549,0.00030276637119613746,151784.5,96872.9609375,282616.28125,997.8565673828125,45.39504623413086
75917716,-0.003351522396211948,-0.005113892693290573,9.80585844281638,-0.00010717917139765579,0.0002325584774925554,0.00027736498453095714,151784.5,96872.9609375,282616.28125,997.8565673828125,45.39504623413086
75927806,-0.0026162842017463106,-0.00027680440641389414,9.815445730719212,0.00021179688227937786,-0.00042226729588860706,0.0003102149436287598,151784.5,96872.9609375,282616.28125,997.8565673828125,45.39504623413086
75937588,0.0010832047361084562,0.002667448978653092,9.812038252386692,0.00020989547082797853,-5.367892468625737e-05,-8.961209675390115e-05,151784.5,96872.9609375,282616.28125,997.8565673828125,45.39504623413086
75947608,-0.0037892514568618196,-0.002670415181884628,9.812129805121067,-3.807210415026877e-05,1.740504207277613e-05,2.1419215315270265e-06,151784.5,96872.9609375,282616.28125,997.8565673828125,45.39504623413086
75957802,0.003741385628575955,-0.004943967301616531,9.82226068738425,0.00025189418992602495,-0.00021240420197414292,-0.000456317697508259,151784.5,96872.9609375,282616.28125,997.8565673828125,45.39504623413086
75967729,0.003596546341771756,-0.0002878536174391322,9.824744055304173,6.547043339458522e-05,-0.00014699680637845827,-0.000626682848060502,151784.5,96872.9609375,282616.28125,997.8565673828125,45.39504623413086
75977797,0.002247208942765866,-0.0021074493119810633,9.818697760138157,2.7908387703865246e-05,9.872456406896876e-05,-0.0005682573158722354,151784.5,96872.9609375,282616.28125,997.8565673828125,45.39504623413086
75987577,0.0036818852919289213,0.001680030982723374,9.81104643109763,1.4124796773904183e-05,0.0002567173925317073,0.00011217220310727293,151784.5,96872.9609375,282616.28125,997.8565673828125,45.39504623413086
75997591,-0.00418445260346445,-0.01310747160411821,9.80797846082175,0.00030871122616452394,-0.00014189781528243852,-1.2259100642970736e-06,158148.46875,94963.78125,280366.28125,997.8619995117188,45.38914108276367
76007796,-0.00019189507782968462,-0.0059610535094831996,9.812377760443333,-9.102016447934095e-05,0.00017558895901033597,-0.0002206356060653909,158148.46875,94963.78125,280366.28125,997.8619995117188,45.38914108276367
76017740,0.002939241220349942,0.010392345051994462,9.811858961615208,-0.00037311037995743337,-6.355718674881441e-05,-0.00025173648316040477,158148.46875,94963.78125,280366.28125,997.8619995117188,45.38914108276367
76027791,-0.003271987448339786,0.0060880999376679845,9.812616179022434,-0.0003461122407380748,-0.00021401166473792923,-6.023733873944571e-05,158148.46875,94963.78125,280366.28125,997.8619995117188,45.38914108276367
76037584,-0.010050883303289737,0.0015910710503961034,9.809091398748997,-9.641947800184373e-05,-0.00020130152721235586,-0.00018966632193978718,158148.46875,94963.78125,280366.28125,997.8619995117188,45.38914108276367
76047595,-0.009163981090193118,0.004562921385994095,9.81021578076804,0.00019427103579153535,0.00018057671162837128,-8.002363608311703e-05,158148.46875,94963.78125,280366.28125,997.8619995117188,45.38914108276367
76057767,-0.007554655681257572,0.003103591065635819,9.811909506353977,-3.38352812897205e-05,-0.000231466861677338,0.000133078233947979,158148.46875,94963.78125,280366.28125,997.8619995117188,45.38914108276367
76067756,-0.012562846551542606,0.007146752934684891,9.810594389471653,-9.308114495717693e-05,5.863336028549246e-06,0.0006142125727180408,158148.46875,94963.78125,280366.28125,997.8619995117188,45.38914108276367
76077823,-0.005732742856149997,0.003517128091087479,9.81281645062888,-0.0001974824273994449,0.00012338185582934589,0.00034538570037484327,158148.46875,94963.78125,280366.28125,997.8619995117188,45.38914108276367
76087567,-0.002295790026789035,0.0020225267221833654,9.811753103766087,5.354135900495801e-05,0.0002810588977271871,0.00013318979620607728,158148.46875,94963.78125,280366.28125,997.8619995117188,45.38914108276367
76097573,-0.0030486190420440096,-0.0034636263439749293,9.813035795721653,0.00017716475012355713,0.00032275525713061854,0.00022470014812797466,160057.640625,87327.0390625,282616.28125,997.8394165039062,45.393436431884766
76107815,-0.0010939070683768648,-0.0032197539398764186,9.814870665106419,-9.84743466752838e-05,0.0004061995479250507,0.00020907302098721424,160057.640625,87327.0390625,282616.28125,997.8394165039062,45.393436431884766
76117741,-0.005463009486799564,-0.00217389358974443,9.819220373663548,-0.00013564041110577764,-0.0001772601043367578,0.0003072110499758289,160057.640625,87327.0390625,282616.28125,997.8394165039062,45.393436431884766
76127769,-0.003319723318224277,0.0009629945566560216,9.810917685064915,3.146573616766598e-05,-0.000898187683432345,-8.797026236634543e-05,160057.640625,87327.0390625,282616.28125,997.8394165039062,45.393436431884766
76137542,0.007812874605054532,-0.005225688655147415,9.808348486456516,5.1634144977361375e-05,-0.00024310580361912084,-0.0003859717602338626,160057.640625,87327.0390625,282616.28125,997.8394165039062,45.393436431884766
76147538,0.006016420413846646,-0.0025100116322134547,9.81671983960593,1.0947443154582817e-05,8.454172542856017e-05,-0.0004968553752135469,160057.640625,87327.0390625,282616.28125,997.8394165039062,45.393436431884766
76157774,0.004610168029660855,-0.0028180633375738673,9.811645338568333,-0.0002913708460320044,0.0001843252486114105,0.0001057846399177813,160057.640625,87327.0390625,282616.28125,997.8394165039062,45.393436431884766
76167734,0.004995869686002408,0.0023066769649888463,9.806168386969212,-0.00040788561564760985,8.784856449069398e-05,-1.4724376981596435e-06,160057.640625,87327.0390625,282616.28125,997.8394165039062,45.393436431884766
76177819,0.0065124726194092375,0.0015439088752175756,9.810039351019505,0.0002998117404721421,0.00014640883286205994,0.00023151091011613766,160057.640625,87327.0390625,282616.28125,997.8394165039062,45.393436431884766
76187518,-0.004274440715914096,0.004630483250847001,9.814286062750462,0.0005034273479331028,-9.16975640021084e-05,-6.530730725264453e-06,160057.640625,87327.0390625,282616.28125,997.8394165039062,45.393436431884766
76197586,-0.009657582054739322,0.0054638604929353185,9.822710821661595,-0.0003074417192757386,-8.984640031399263e-05,3.857475497143036e-05,160163.71875,91251.46875,284866.28125,997.8311767578125,45.393436431884766
76207778,0.0017111471193977934,0.003915212612381119,9.817905256781223,-0.0006458584113780666,-0.00023144526663513912,0.00024297885250207195,160163.71875,91251.46875,284866.28125,997.8311767578125,45.393436431884766
76217731,0.00271610378205267,0.001527145068874497,9.815513441595677,-0.0004165095171693969,-5.3977821025048026e-05,-6.617099858913412e-05,160163.71875,91251.46875,284866.28125,997.8311767578125,45.393436431884766
76227819,-0.0028222853046706575,0.002429745655288834,9.819050619635227,-0.0001507264543826017,0.0001411900290267548,-0.0004211180988661929,160163.71875,91251.46875,284866.28125,997.8311767578125,45.393436431884766
76237537,-0.004575839052801456,0.0059775780250932165,9.811087439093235,-0.0004598095849424857,0.00014040710097192264,-0.00017443347894213935,160163.71875,91251.46875,284866.28125,997.8311767578125,45.393436431884766
76247562,0.0013961961764046293,0.0005491446068192907,9.803280661139134,-0.0005733394074987877,0.0006581401159027772,-0.0005705306160692109,160163.71875,91251.46875,284866.28125,997.8311767578125,45.393436431884766
76257796,0.0009054189819046599,-0.004829518933067184,9.808463881048802,-4.515301516868878e-05,0.0006697631962569611,-0.00020497818183712503,160163.71875,91251.46875,284866.28125,997.8311767578125,45.393436431884766
76267725,0.00017149954020467817,-0.003017828304538589,9.812312910589817,-8.573221936894168e-06,0.0004467166783260362,0.0006855695188548432,160163.71875,91251.46875,284866.28125,997.8311767578125,45.393436431884766
76277752,0.0016562586921402556,0.0005301158239747472,9.813408682379368,-0.0004164493304480124,0.000427380646343361,0.000795163368484007,160163.71875,91251.46875,284866.28125,997.8311767578125,45.393436431884766
76287543,-0.0011384540897658724,0.0015151794364358373,9.816583464178684,-0.00014066467811709972,0.00034946280915478184,0.0004016312392465786,160163.71875,91251.46875,284866.28125,997.8311767578125,45.393436431884766
76297556,-0.006927994797830905,0.002103633742561478,9.817584822210911,-0.00021378434140125992,0.00010708153617174307,0.0002475172456158341,160587.96875,98888.21875,282316.28125,997.8722534179688,45.39397430419922
76307747,-0.00761024446309122,0.004478387098541398,9.820511648687962,-6.079036502989713e-05,0.0005324631985249178,-6.849002817971474e-05,160587.96875,98888.21875,282316.28125,997.8722534179688,45.39397430419922
76317731,-0.007695970843439426,0.011525608163108964,9.81798059705222,0.0003667809349216264,0.0003684374152189301,-0.00023065864513255498,160587.96875,98888.21875,282316.28125,997.8722534179688,45.39397430419922
76327775,0.0013826212185570341,-0.0023111928889845423,9.810662100348118,0.00033400405554210065,-9.06211006250052e-05,6.0128562499537784e-05,160587.96875,98888.21875,282316.28125,997.8722534179688,45.39397430419922
76337589,-0.0008081996542266268,-0.008792594511279922,9.806738684210423,0.00011728962889981683,0.00010205707270956541,0.00035620152778364876,160587.96875,98888.21875,282316.28125,997.8722534179688,45.39397430419922
76347583,-0.0031282657486251253,-0.0009408821055983119,9.808709929022434,4.4197137679366806e-05,0.00016257705659968255,0.00022591281743161539,160587.96875,98888.21875,282316.28125,997.8722534179688,45.39397430419922
76357776,-0.007503008256559696,0.003737620573272843,9.817535231146458,7.649711077909213e-05,-2.574295818617625e-05,-0.0001414479833058997,160587.96875,98888.21875,282316.28125,997.8722534179688,45.39397430419922
76367738,-0.009987866292600955,0.003554783325424332,9.819655249151829,-6.862267874304909e-05,0.00018396744975775423,0.0004946179775558428,160587.96875,98888.21875,282316.28125,997.8722534179688,45.39397430419922
76377849,-0.007960749576692905,-3.0994851360183207e-05,9.814515898260716,-5.8562765122696346e-05,0.0006199264372671203,9.39430843843163e-05,160587.96875,98888.21875,282316.28125,997.8722534179688,45.39397430419922
76387537,-0.0012476870518973726,-0.0020766411612127833,9.809670279059056,0.00010034840560627397,0.00035990369191581323,-0.00016770186482090345,160587.96875,98888.21875,282316.28125,997.8722534179688,45.39397430419922
76397580,0.0015644079345413786,-0.008783109922180038,9.804045507940891,0.000234686986725938,4.724375880045759e-05,-4.1586454581467715e-05,162815.375,99630.6796875,291466.28125,997.864990234375,45.39021301269531
76407815,0.007342266132230435,-0.010872215468654495,9.799217054876927,-0.00038332247750724437,-0.0001493572434438212,-0.00036739958738535484,162815.375,99630.6796875,291466.28125,997.864990234375,45.39021301269531
76417770,0.009787256111497555,0.0029288451483155675,9.81125623944724,-0.0001430325221073139,-0.0004240235956413491,-0.0002809018973223849,162815.375,99630.6796875,291466.28125,997.864990234375,45.39021301269531
76427837,0.009743923534745846,0.002521685819854874,9.80762560132468,-0.00034400911063777985,-9.79401901159255e-05,-0.00010429043902177205,162815.375,99630.6796875,291466.28125,997.864990234375,45.39021301269531
76437575,0.005626062144632016,0.005628786545028824,9.804096052679661,-0.00011984884732293669,0.00016031801182266267,-0.00022352218217775067,162815.375,99630.6796875,291466.28125,997.864990234375,45.39021301269531
76447527,0.0005818477171608549,0.002285204391708512,9.808144400152806,4.2384794863101506e-05,-0.00045457109250405863,-0.00028319210684485575,162815.375,99630.6796875,291466.28125,997.864990234375,45.39021301269531
76457748,-0.0018308439952186006,-0.0030537475535963587,9.814386198553684,-0.0002283522782882932,-0.0010796830118661566,-0.00015603389180824002,162815.375,99630.6796875,291466.28125,997.864990234375,45.39021301269531
76467711,0.0037962889569946867,-0.0034750704357718043,9.815534422430638,-0.00044117271427887263,-0.00048014026275182203,-0.00024957581478729686,162815.375,99630.6796875,291466.28125,997.864990234375,45.39021301269531
76477801,0.0015880188244530302,-0.007089361984500747,9.816018888983372,-0.000449326879977088,-2.8215444998797604e-05,-0.00019536917386203846,162815.375,99630.6796875,291466.28125,997.864990234375,45.39021301269531
76487605,0.0049016868966766936,-0.0008767400572393946,9.821396658453587,-0.0001610691553715873,0.0004310653076945053,0.00033480197601393023,162815.375,99630.6796875,291466.28125,997.864990234375,45.39021301269531
76497561,0.002135986675614987,-0.002163917262325149,9.822240660223606,-0.0003991619752988476,5.715474084440561e-05,0.000494587273014711,159739.453125,98463.9609375,285466.25,997.8412475585938,45.39289855957031
76507802,0.005459482063645993,-0.005520694393882614,9.815545866522434,-0.00025594772997203054,0.00017612216301217618,0.0004210051935203389,159739.453125,98463.9609375,285466.25,997.8412475585938,45.39289855957031
76517716,0.008413182784909878,-0.0010582734534834437,9.80784590009177,-0.00018686890071614417,0.0002164674571221875,-5.312947757402277e-05,159739.453125,98463.9609375,285466.25,997.8412475585938,45.39289855957031
76527750,0.0020307621258446318,0.008053548197975297,9.805497953924778,-1.5078424628081319e-05,-0.0001721719689694984,-0.0001395272905668228,159739.453125,98463.9609375,285466.25,997.8412475585938,45.39289855957031
76537557,0.002352433492536221,0.007905475359192032,9.801180670294407,4.828486161648523e-05,0.00011600703159360623,-6.028390486817649e-05,159739.453125,98463.9609375,285466.25,997.8412475585938,45.39289855957031
76547547,0.005695754875535641,-0.0004886020610426478,9.80962927106345,0.00019083943224621234,0.0001157234347746888,-0.00035864125527068814,159739.453125,98463.9609375,285466.25,997.8412475585938,45.39289855957031
76557799,0.0028633794087120634,-0.004644349653491836,9.81570608380759,0.00022776133736704705,0.00011511053539011104,-0.0005900565505456163,159739.453125,98463.9609375,285466.25,997.8412475585938,45.39289855957031
76567716,0.005290279378289853,-0.0059658963868712,9.81704885724509,-9.927542233264778e-05,0.00013834848097389827,-0.00024763502585328957,159739.453125,98463.9609375,285466.25,997.8412475585938,45.39289855957031
76577786,0.006378026892537747,0.009034134011497635,9.815774748358372,-0.0004357541922282684,5.293654079737084e-05,0.00018306007553264657,159739.453125,98463.9609375,285466.25,997.8412475585938,45.39289855957031
76587556,0.008682647933358822,0.003409631114235062,9.814003775152806,-0.00042265886550660016,7.678265447746388e-06,0.00013285458556283424,159739.453125,98463.9609375,285466.25,997.8412475585938,45.39289855957031
76597563,-0.0005645358663848299,-0.0016430024693106227,9.818098852667454,-0.00041347782935837986,-0.00028384234779791967,0.0006690015230830775,156769.609375,95281.96875,287416.25,997.8422241210938,45.39934539794922
76607755,-0.002146957228784885,-0.000322595674762588,9.81934435132468,-0.0003235348278459418,-0.0005021006162306114,0.00032050259472243646,156769.609375,95281.96875,287416.25,997.8422241210938,45.39934539794922
76617735,-0.005166021893625583,0.004046089511146683,9.815387556585911,-7.587001273997832e-05,-0.00015168450214246345,0.00011316916937148357,156769.609375,95281.96875,287416.25,997.8422241210938,45.39934539794922
76627790,-0.008481746326093997,0.0005125101020242162,9.819014380011204,0.00023640162434538124,-0.00013917887723350955,0.00018669331041537384,156769.609375,95281.96875,287416.25,997.8422241210938,45.39934539794922
76637572,0.001304978718156491,-0.006391056318054061,9.812608549627903,0.0004767110793117177,1.3349918063748054e-05,0.0003501456609498725,156769.609375,95281.96875,287416.25,997.8422241210938,45.39934539794922
76647572,-0.0018341669541648287,-0.006858759064445358,9.810673544439915,7.107980017543066e-05,-0.00013141656550856365,8.041931289853686e-05,156769.609375,95281.96875,287416.25,997.8422241210938,45.39934539794922
76657799,-0.004992289255266513,-0.005078316170940261,9.817698309454563,0.0001233170321874064,-0.00042252230365106896,-7.546286212373367e-05,156769.609375,95281.96875,287416.25,997.8422241210938,45.39934539794922
76667725,-0.0047311985594085115,0.0012600268533135839,9.824127028021458,0.0003271704470470291,-0.0001770397883402003,-0.00012893073141667834,156769.609375,95281.96875,287416.25,997.8422241210938,45.39934539794922
76677747,-0.0059140527349761385,0.008171669702758927,9.823330709967259,0.0005626431655335914,0.00023624121071493196,-0.0005263433762323095,156769.609375,95281.96875,287416.25,997.8422241210938,45.39934539794922
76687577,0.004464188804025326,0.0037630866577531286,9.8229959702822,0.0003695025505229574,8.428563354841376e-05,-0.00030933284721895894,156769.609375,95281.96875,287416.25,997.8422241210938,45.39934539794922
76697599,0.010613212575311337,0.0020573209335709997,9.818168470892552,-0.0001833917205723259,0.00027324577071426376,0.00011620392763661379,158997.0,100267.078125,283666.28125,997.8385009765625,45.393436431884766
76707888,0.008512372364396725,0.005541659455528397,9.809414694342259,-0.00019450542568585607,0.00023343745682809444,0.0003062862757630662,158997.0,100267.078125,283666.28125,997.8385009765625,45.393436431884766
76717761,0.004961902489061032,0.008455059986343522,9.799430677923802,6.861376349923428e-05,-0.00013492087042236758,0.0005038973846510069,158997.0,100267.078125,283666.28125,997.8385009765625,45.393436431884766
76727787,-0.0036091783744147676,-0.000952601868877273,9.802907774481419,0.0003164507786940527,0.00038736858381612166,0.00037243590634688893,158997.0,100267.078125,283666.28125,997.8385009765625,45.393436431884766
76737575,-0.005983387838011112,-0.0013376180718039088,9.807728598150852,-0.00014459542690667095,0.0005133641881374823,0.00013355067642778316,158997.0,100267.078125,283666.28125,997.8385009765625,45.393436431884766
76747536,-0.003232946406011905,0.0008817310740853734,9.816778967413548,-0.00028661350480171623,0.0007828322760733025,-0.00031868865186907193,158997.0,100267.078125,283666.28125,997.8385009765625,45.393436431884766
76757794,0.0059633499282547575,-0.009161577064761978,9.818465063604954,1.763350500630675e-05,0.0002903678161064343,-0.0004788452264349892,158997.0,100267.078125,283666.28125,997.8385009765625,45.393436431884766
76767776,0.008363800336713467,-0.005049467522868972,9.824286291632298,-0.00039443274836878064,-0.00014858794189335836,-0.0005629878927450611,158997.0,100267.078125,283666.28125,997.8385009765625,45.393436431884766
76777798,0.0022706335681625944,-0.003088169235954147,9.829026052984837,-0.0005646721121657897,7.870943422035257e-05,-0.00040612598820216795,158997.0,100267.078125,283666.28125,997.8385009765625,45.393436431884766
76787583,-0.008562406311636295,-0.0007591102907751612,9.82029993298972,-0.0003290315227851528,0.00014964973628679931,-1.813603227701811e-05,158997.0,100267.078125,283666.28125,997.8385009765625,45.393436431884766
76797588,-0.0045292282205871,-0.005211949784526687,9.817687819037083,-3.574859256979782e-05,0.0004719313348150061,0.00022811973179131905,151996.640625,92206.0703125,283966.28125,997.872314453125,45.39504623413086
76807793,0.005088443149919186,-0.002913870353469711,9.819529364142063,-0.0001622861756978813,0.0004246172376414941,0.00040559241609089235,151996.640625,92206.0703125,283966.28125,997.872314453125,45.39504623413086
76817767,0.0026029071110436064,0.0013880203773881383,9.815506765875462,-0.00019489861843532654,0.00018220938558529074,0.0001236200711261497,151996.640625,92206.0703125,283966.28125,997.872314453125,45.39504623413086
76827794,0.0038104152578064543,-0.009233534772167068,9.810203383001927,-4.5350739316854215e-05,-7.112490365263649e-06,9.344268767535845e-05,151996.640625,92206.0703125,283966.28125,997.872314453125,45.39504623413086
76837552,-0.002407727549677219,-0.011706829507121902,9.807005713019016,-0.0003631002629909921,0.00014883321195243102,0.0005610641470681892,151996.640625,92206.0703125,283966.28125,997.872314453125,45.39504623413086
76847557,-0.004156028638487186,-0.005147114832172256,9.811621496710423,-0.00029888126410434725,0.00030404316761719003,0.0007556497963648306,151996.640625,92206.0703125,283966.28125,997.872314453125,45.39504623413086
76857781,-0.0025918537479689974,0.00032960579895033315,9.822484800848606,-0.00032337155535707953,0.0005485588973360316,0.0004703572864215837,151996.640625,92206.0703125,283966.28125,997.872314453125,45.39504623413086
76867736,0.0017735159295746428,0.006350330572357316,9.819754431280735,-0.0002253762661049399,0.00011811413800473733,-0.0001386209390787392,151996.640625,92206.0703125,283966.28125,997.872314453125,45.39504623413086
76877760,0.005662882913942013,0.010071806173553605,9.811496565374973,-0.0003120511257358152,0.00028863727324364647,-0.00025803475579805514,151996.640625,92206.0703125,283966.28125,997.872314453125,45.39504623413086
76887559,0.0004449134963699919,0.00695655451320662,9.809738943609837,6.349026801108795e-06,0.000494810525325145,-0.0006318748549986614,151996.640625,92206.0703125,283966.28125,997.872314453125,45.39504623413086
76897575,-0.0029805430871299166,0.007137901644935746,9.811255285772923,4.1471127399636843e-05,-0.0001732511390028341,-0.00024108855574950418,161754.734375,99842.8125,287116.28125,997.8546752929688,45.39451217651367
76907754,-8.271426976236285e-05,0.005340836506118912,9.816784689459446,0.00015363101446644632,-3.55461760219006e-05,0.0002135458577228726,161754.734375,99842.8125,287116.28125,997.8546752929688,45.39451217651367
76917730,-0.006552135358457889,0.00585927770637526,9.80571253064597,0.00045225483954061983,-3.5903454644587465e-05,0.0005134898034427331,161754.734375,99842.8125,287116.28125,997.8546752929688,45.39451217651367
76927820,0.0003087392348000151,0.008691824536552567,9.800665686163548,0.0005519716640200209,0.0002721603433573799,0.0004807199089825169,161754.734375,99842.8125,287116.28125,997.8546752929688,45.39451217651367
76937470,-0.003954453180437412,-0.000259995896587234,9.799316237005833,0.00014232082939350275,0.00040188301331086024,0.0003691785183306799,161754.734375,99842.8125,287116.28125,997.8546752929688,45.39451217651367
76947547,-0.005861861417894687,-0.008496039051780563,9.812489340338352,-0.00022741151152069452,5.546027217946889e-05,9.586390081467265e-05,161754.734375,99842.8125,287116.28125,997.8546752929688,45.39451217651367
76957752,-0.0036758759719184297,-0.0020763207862471156,9.821266958746556,-0.0005735538445215929,0.00018334837854213024,0.00014638227878976772,161754.734375,99842.8125,287116.28125,997.8546752929688,45.39451217651367
76967750,-0.003415098200445499,0.005027375679245133,9.819413969549778,-0.00025973862030434193,-0.00012295899237783683,0.00045034700599871734,161754.734375,99842.8125,287116.28125,997.8546752929688,45.39451217651367
76977789,-0.0019601413708976168,0.008868805628051896,9.817968199286106,0.000259257677310307,-0.00012241122918481065,0.0005129974248390661,161754.734375,99842.8125,287116.28125,997.8546752929688,45.39451217651367
76987575,-0.005812411914472904,0.010005376796951432,9.81584436658347,0.00031678989652653453,0.00012869378782938643,4.2297380450416076e-05,161754.734375,99842.8125,287116.28125,997.8546752929688,45.39451217651367
76997589,-0.005262685726290073,0.005892075162162919,9.807919333014134,-0.0004148132586188871,-0.00012252624752277566,9.098159016228004e-06,160375.859375,95069.84375,287116.28125,997.8546752929688,45.39504623413086
77007768,0.0013178384202667814,0.0013905535747910924,9.807966063055638,-0.0004084540425602603,4.554169403577166e-05,0.00023005427795369336,160375.859375,95069.84375,287116.28125,997.8546752929688,45.39504623413086
77017686,0.009178431918019925,0.0015357728412057348,9.814659903082493,-8.193491631311137e-05,-2.7066506473167023e-06,0.0003086737793907539,160375.859375,95069.84375,287116.28125,997.8546752929688,45.39504623413086
77027751,-0.0007385143739035982,0.0002639214804078527,9.811699698004368,0.00024126308452912835,-0.0004440815481385036,-0.00021142740149143925,160375.859375,95069.84375,287116.28125,997.8546752929688,45.39504623413086
77037555,-0.004415740976934757,-5.5417854556899515e-05,9.811114141974095,0.00014011030615882245,-0.0002854769644355221,-0.00041038780761509975,160375.859375,95069.84375,287116.28125,997.8546752929688,45.39504623413086
77047601,-0.004602333317404117,-0.00021170123315797373,9.811562368902806,0.0001270993587176059,-0.00014942709263691736,-9.862436584646786e-07,160375.859375,95069.84375,287116.28125,997.8546752929688,45.39504623413086
77057800,-0.00046625525773080767,-2.726211048112437e-05,9.810611555609348,9.542875231352862e-05,-2.0770845281017631e-07,0.00029064995181188146,160375.859375,95069.84375,287116.28125,997.8546752929688,45.39504623413086
77067770,0.0014781749147125822,-0.002865046698818069,9.804761717352513,0.00043843479833674846,-0.000169534376126696,0.0002565807022890092,160375.859375,95069.84375,287116.28125,997.8546752929688,45.39504623413086
77077762,-0.0023072043162635225,-0.004705481667289596,9.80336649182761,0.0009680653445619833,-1.7278094545920022e-05,0.0003481009713411347,160375.859375,95069.84375,287116.28125,997.8546752929688,45.39504623413086
77087594,-0.0062996277314475435,-0.0037040565798376612,9.813725302252415,0.0003564509959622961,0.0002017043281202385,0.0005028517422303574,160375.859375,95069.84375,287116.28125,997.8546752929688,45.39504623413086
77097548,0.002115937163228665,-0.002116293151149612,9.813735792669895,-2.092565519626025e-05,0.000116228935567913,0.00027357793590426603,156027.125,94963.7734375,284566.28125,997.8583984375,45.40095520019531
77107765,0.0004858544367500883,0.0012933011462594457,9.80990774396384,-0.0005537337867345918,0.0002345963859087968,3.596003592037754e-05,156027.125,94963.7734375,284566.28125,997.8583984375,45.40095520019531
77117765,0.0007797723907181364,0.006083614688148636,9.81467134717429,-0.0005111427173752595,0.00012396777596309025,-0.00018217210014909348,156027.125,94963.7734375,284566.28125,997.8583984375,45.40095520019531
77127825,-0.0019022354584983248,0.005354351859321732,9.812372038397434,4.301487096461695e-05,1.1314934582467548e-05,0.0001506670756768451,156027.125,94963.7734375,284566.28125,997.8583984375,45.40095520019531
77137607,0.001821423162812863,-0.005003810364971023,9.81875021222556,0.00013394048327689288,-0.00032469178573506013,0.0006363170483652519,156027.125,94963.7734375,284566.28125,997.8583984375,45.40095520019531
77147575,0.005356187214250241,-0.01236066265798555,9.815728971991184,0.0001913822623399761,-0.0002514903843430622,0.0007977104775179194,156027.125,94963.7734375,284566.28125,997.8583984375,45.40095520019531
77157758,-0.0005231180888465303,-0.014281630952129226,9.814795324835423,0.00024658119836465684,7.496992239746622e-06,0.0008410280366931127,156027.125,94963.7734375,284566.28125,997.8583984375,45.40095520019531
77167747,-0.008694512556200351,0.0017255242278481908,9.819837400946263,-4.51211683022115e-05,-0.00021890387311855388,0.00029535688520781854,156027.125,94963.7734375,284566.28125,997.8583984375,45.40095520019531
77177835,-0.004826618145113315,0.012023873191108841,9.81925947431052,-1.5584220883460314e-06,-0.0005841035689255042,-0.0003222734579779192,156027.125,94963.7734375,284566.28125,997.8583984375,45.40095520019531
77187526,-0.006535907993917789,-0.00014332725502000376,9.815511534247044,8.068368951433566e-05,-0.0002643902788432135,-0.00045504021397419116,156027.125,94963.7734375,284566.28125,997.8583984375,45.40095520019531
77197605,0.002864318181867276,-0.008201979536781173,9.814632246527317,0.0006304259284596633,1.596793130461069e-05,-0.00013343549505434772,160163.734375,96342.6328125,286516.28125,997.8516235351562,45.39934539794922
77207787,0.003260055770272885,-0.005373798746833663,9.816469023260716,0.0001952543523592618,0.0005197467745719658,-5.95891673313438e-05,160163.734375,96342.6328125,286516.28125,997.8516235351562,45.39934539794922
77217749,-0.0017936804992011446,0.005903280835380692,9.818701574835423,0.0002399655048001301,0.0005307753218775795,0.00042217528392002145,160163.734375,96342.6328125,286516.28125,997.8516235351562,45.39934539794922
77227776,0.0021651109951683623,0.0014360989739800878,9.810576269659641,-0.00016369769692311766,-1.1601901732367106e-05,0.0006466113642361031,160163.734375,96342.6328125,286516.28125,997.8516235351562,45.39934539794922
77237518,0.0022065660256096464,0.000940165977707047,9.81142599347556,-0.00046529556967208865,-0.0004971017423113628,0.0005080538773015158,160163.734375,96342.6328125,286516.28125,997.8516235351562,45.39934539794922
77247639,0.0014312809604355436,0.010312877159347672,9.811902830633763,-0.00023609833552392902,-0.00019161076657751633,-0.0003301947057209893,160163.734375,96342.6328125,286516.28125,997.8516235351562,45.39934539794922
77257748,0.005062261809701596,0.0077870111277009435,9.811575720343235,5.0981698944161126e-05,0.00032844950887096986,-0.00034348005135170957,160163.734375,96342.6328125,286516.28125,997.8516235351562,45.39934539794922
77267732,0.007259512533540402,-0.0011540804693792872,9.816808531317356,6.194560664233048e-05,0.00036687261867059335,-0.00015719085638038656,160163.734375,96342.6328125,286516.28125,997.8516235351562,45.39934539794922
77277793,0.006435232450360928,-0.006790057260761123,9.814021894964817,-0.00019729239393847766,0.00022474019182568359,0.0004865162860639409,160163.734375,96342.6328125,286516.28125,997.8516235351562,45.39934539794922
77287536,0.0038654675978371245,-0.005006976861724716,9.806544134649876,-6.089718336363096e-05,-8.179625964705475e-06,0.0004148599197193996,160163.734375,96342.6328125,286516.28125,997.8516235351562,45.39934539794922
77297606,0.0049787706035324675,-0.004323989588985305,9.809942076239231,3.530307621338632e-05,-0.0005338331046541973,0.00017223509496916244,162603.234375,101539.875,287116.28125,997.8555908203125,45.40041732788086
77307748,0.006461831023091946,-0.003380120236644607,9.810256788763645,-0.0001972809270292777,-0.00025475117750743464,0.00018792642515991041,162603.234375,101539.875,287116.28125,997.8555908203125,45.40041732788086
77317726,-0.0059476026994040865,-0.009067543287048202,9.814452955755833,0.0004563235550384712,0.000134993619795703,0.00047930674339085976,162603.234375,101539.875,287116.28125,997.8555908203125,45.40041732788086
77327789,-0.007311759303217258,-0.004145637590656143,9.818059752020481,0.00035076189559993563,0.00039105656300393804,2.695793717038918e-05,162603.234375,101539.875,287116.28125,997.8555908203125,45.40041732788086
77337603,-0.003666376481657352,-0.005292050976524215,9.806648085150364,-0.00019974843708689096,0.00014054665975067824,-4.181470137182465e-05,162603.234375,101539.875,287116.28125,997.8555908203125,45.40041732788086
77347487,0.0064361786740967375,0.002237565379371781,9.811679670843723,-0.00042837424662786307,-6.358454434944374e-05,-3.127223169058403e-05,162603.234375,101539.875,287116.28125,997.8555908203125,45.40041732788086
77357785,0.016533235301370297,-0.0009407032916639857,9.823703596624973,6.440908503355405e-06,-0.0005060408674208267,-0.00026999922408349654,162603.234375,101539.875,287116.28125,997.8555908203125,45.40041732788086
77367744,0.006274895955915127,0.0036316584160233922,9.817992994818333,-7.329794717144925e-05,-8.189278911145461e-05,-1.9747293090679028e-05,162603.234375,101539.875,287116.28125,997.8555908203125,45.40041732788086
77377797,-0.007352715144758548,0.0011137049009705968,9.820295164618138,-8.9606183980431e-05,9.687711475721503e-05,-0.00011076030784379533,162603.234375,101539.875,287116.28125,997.8555908203125,45.40041732788086
77387594,-0.00648119093001398,-0.004320092935333114,9.821944067511204,0.00029209136736688433,0.0001099618367706606,-8.264639324834412e-05,162603.234375,101539.875,287116.28125,997.8555908203125,45.40041732788086
77397575,-0.0006712877851775545,-0.00423324896789537,9.807926962408665,0.00022634088126586048,0.0006419169423142628,-1.3516614099264422e-05,157936.328125,92630.328125,283966.25,997.8380737304688,45.39719772338867
77407771,-0.00019512117922815264,-0.002877384860286575,9.814496824774388,-0.0003294004138361919,0.0008297226796830253,-7.564332042448064e-05,157936.328125,92630.328125,283966.25,997.8380737304688,45.39719772338867
77417713,-0.005917353342180576,-0.0010123406241034083,9.8153694367739,-0.00047842826571206334,0.00015706786156529038,0.0001099922898262755,157936.328125,92630.328125,283966.25,997.8380737304688,45.39719772338867
77427760,-0.007267614613180484,0.0017770822455789037,9.807989904913548,-0.0003121605561383325,7.557830225864368e-05,0.00011098207472032094,157936.328125,92630.328125,283966.25,997.8380737304688,45.39719772338867
77437597,-0.00392234117806467,0.000529847603073258,9.809330771002415,-0.00024100588162320437,0.0006961812670314865,2.886927461958998e-05,157936.328125,92630.328125,283966.25,997.8380737304688,45.39719772338867
77447548,-0.010507246266012515,0.004557244043579239,9.81629259351218,-6.280296038959879e-05,0.0005132985881036328,-5.977036777976742e-05,157936.328125,92630.328125,283966.25,997.8380737304688,45.39719772338867
77457816,-0.0007789859277060884,0.006115458469619889,9.820505926642063,-0.000153700618472721,0.00015190178068309965,-0.000361352539012207,157936.328125,92630.328125,283966.25,997.8380737304688,45.39719772338867
77467719,0.0032824149626442534,0.004896096449127335,9.81398947003806,-5.009081833770271e-05,0.00017480201690063754,-0.00036329222200065693,157936.328125,92630.328125,283966.25,997.8380737304688,45.39719772338867
77477805,0.00020419268786397993,0.008202112775077958,9.805820295843723,-9.61301266863249e-06,0.00037039405118862107,-0.00027382684344984433,157936.328125,92630.328125,283966.25,997.8380737304688,45.39719772338867
77487556,0.007604735185498868,0.010223693709602494,9.802271673712376,-0.00047380279393757465,0.00020179780962366553,-0.00038281914600729784,157936.328125,92630.328125,283966.25,997.8380737304688,45.39719772338867
77497533,0.004251765300626431,0.010062194924583573,9.810288260016087,-0.0005573679238360632,0.0001272534574499767,0.00016864480278827408,158148.46875,96660.84375,288166.28125,997.8873901367188,45.401493072509766
77507794,0.001095855821962033,0.005719281296959061,9.807045767340306,-0.00024273706477026226,4.2250691095385126e-05,0.00016169752928335378,158148.46875,96660.84375,288166.28125,997.8873901367188,45.401493072509766
77517716,0.0023746138709732634,0.008712447743644852,9.814536879095677,-0.0003109774854302663,0.0006106351267052995,0.0006703623017799126,158148.46875,96660.84375,288166.28125,997.8873901367188,45.401493072509766
77527869,-0.0019042098623565096,-0.0021347035358046107,9.819263289007786,-0.0001052385861904617,0.000538284692212026,0.0008303051960226165,158148.46875,96660.84375,288166.28125,997.8873901367188,45.401493072509766
77537529,0.00014391749083486616,-0.010586396295795303,9.812448332342747,-0.0004526910208434123,0.00020239765412129404,0.0001273279209542104,158148.46875,96660.84375,288166.28125,997.8873901367188,45.401493072509766
77547588,-0.0017690414291671175,-0.002795875508556228,9.804300138983372,-0.00010544584184310172,0.00010416879935378151,-8.404360266495338e-05,158148.46875,96660.84375,288166.28125,997.8873901367188,45.401493072509766
77557786,-0.003573542247419681,0.004474646907081742,9.8143928742739,-0.0003563382499188441,3.772757021665516e-05,9.821087008249173e-05,158148.46875,96660.84375,288166.28125,997.8873901367188,45.401493072509766
77567754,-0.003638772080545749,0.0036953161766435094,9.82291109326804,-0.00027387109112816634,0.00014127302314677568,0.000663442982504146,158148.46875,96660.84375,288166.28125,997.8873901367188,45.401493072509766
77577776,-0.0022940838438323397,-0.005168512899646621,9.818673918280247,-0.000530587161126386,0.0003758071308229299,0.0007857152755875157,158148.46875,96660.84375,288166.28125,997.8873901367188,45.401493072509766
77587508,0.0014754852551170927,-0.0015844930598829798,9.81354601148093,-0.00044487431405934276,0.0005500969474641786,0.00016456891319621513,158148.46875,96660.84375,288166.28125,997.8873901367188,45.401493072509766
77597604,0.006650561680192624,0.004996262054672379,9.80973036054099,6.639414167955745e-05,-0.0001488885262543155,9.364584696386168e-05,161118.3125,94963.765625,285466.25,997.85498046875,45.39773178100586
77607751,0.0025030320781418425,0.006896979670753617,9.811000654730442,-0.0001474384491367522,-0.00044627306657189563,-3.336114820767967e-05,161118.3125,94963.765625,285466.25,997.85498046875,45.39773178100586
77617719,0.0028280636566826445,0.008114821772804398,9.813913176092747,-5.990968208715838e-06,-0.00014558529970513714,-0.0002881103631537392,161118.3125,94963.765625,285466.25,997.85498046875,45.39773178100586
77627765,-0.009037663946752872,-0.00010889812208161875,9.802454779181126,-0.00030707221704425993,0.0004067514147581713,6.99717726362885e-05,161118.3125,94963.765625,285466.25,997.85498046875,45.39773178100586
77637580,-0.010336970697050418,-0.0007935990283583216,9.810209105047825,-0.00045869534479344966,0.0006084090038174944,9.387191824289197e-05,161118.3125,94963.765625,285466.25,997.85498046875,45.39773178100586
77647552,-0.011262899051313724,-0.002226829964885574,9.815761396917942,-0.00040289037970716836,0.00024995553953062683,0.0002529754216354356,161118.3125,94963.765625,285466.25,997.85498046875,45.39773178100586
77657781,-0.0032425949078849214,-0.00010169341064439341,9.813321898016575,-0.00018348070553394737,-0.00011105805775428248,0.0004456524708345548,161118.3125,94963.765625,285466.25,997.85498046875,45.39773178100586
77667775,0.004291849424237881,0.0006745676805879064,9.810912916693333,-0.00016846491890384587,-0.0006339992340681894,-0.0001113352540144681,161118.3125,94963.765625,285466.25,997.85498046875,45.39773178100586
77677753,0.0011227300661751372,-0.0007122610399817042,9.813407728705052,0.0005345939414772879,-0.0003255031132167025,-0.0003614776563793405,161118.3125,94963.765625,285466.25,997.85498046875,45.39773178100586
77687528,-0.0029109844666770357,-0.0017249886581991725,9.819720099005345,0.0002600595169432205,-0.00022092519235143495,-9.624141818703925e-05,161118.3125,94963.765625,285466.25,997.85498046875,45.39773178100586
77697589,-0.0057445445758155245,-0.004248790879020553,9.819647619757298,-3.6760954760320074e-05,7.679996464589553e-05,0.00031574312891252497,163451.75,96448.7109375,282766.28125,997.8500366210938,45.401493072509766
77707749,-0.01094465495169672,0.00025991306804670766,9.812385389837864,-9.923258149421546e-05,-0.0001669732681503339,0.00045926031601056615,163451.75,96448.7109375,282766.28125,997.8500366210938,45.401493072509766
77717760,-0.012328004251127567,0.006116710167160172,9.81230432752097,-0.00035871335531475725,-0.0006170797804398282,0.00031028290107287625,163451.75,96448.7109375,282766.28125,997.8500366210938,45.401493072509766
77727823,-0.011204166124468173,-0.0007701147983168177,9.81295950177634,-0.00024630813387113395,-0.0006327648824108584,-8.366853432589984e-05,163451.75,96448.7109375,282766.28125,997.8500366210938,45.401493072509766
77737530,-0.008980346630220737,-0.0014248122165297084,9.806624243292454,7.66647415665653e-05,-0.000556650856978242,-0.0002739847317300721,163451.75,96448.7109375,282766.28125,997.8500366210938,45.401493072509766
77747613,-0.00564147324383768,0.0012919600417519994,9.814097235235813,0.00022974707716719476,0.0002755232182070793,-0.00048734366134367725,163451.75,96448.7109375,282766.28125,997.8500366210938,45.401493072509766
77757883,0.002130726565713559,-0.0033400733659361415,9.815592596563938,-0.00038299523403758886,0.00042574614612108036,-0.000301817772533743,163451.75,96448.7109375,282766.28125,997.8500366210938,45.401493072509766
77767775,-0.00014824212611230791,-0.0038927127311323695,9.818302938971165,-0.0005053575161647309,-0.0002187113512800826,-0.0003185141161978229,163451.75,96448.7109375,282766.28125,997.8500366210938,45.401493072509766
77777758,-0.0002445110780051607,0.002555138926735062,9.813207457098606,8.038379636935186e-05,-2.8166448700223692e-05,-0.00015733736506290576,163451.75,96448.7109375,282766.28125,997.8500366210938,45.401493072509766
77787559,0.010864416350717221,-0.0018217418978308253,9.81059248212302,0.0004356211273196828,0.0003016103056697355,0.00014429469741089428,163451.75,96448.7109375,282766.28125,997.8500366210938,45.401493072509766
77797601,0.011212738444204007,-0.0028613661120031886,9.80705530408347,0.0003241372749406588,0.0003299536821404652,-0.00020448987776972195,157406.015625,91039.328125,291016.28125,997.8574829101562,45.40041732788086
77807808,0.007375555326337491,0.005506224494209427,9.805839369330052,-0.00013412976223400565,0.00013760875511111212,-0.00015474529061093768,157406.015625,91039.328125,291016.28125,997.8574829101562,45.40041732788086
77817779,-0.007801105986242618,0.007449902158012528,9.813269445929173,-0.00041226294816362443,6.980770389504673e-05,0.00011933992357598776,157406.015625,91039.328125,291016.28125,997.8574829101562,45.40041732788086
77827836,-0.017853287766580905,0.005694619875183243,9.820895025763157,0.0003088467335991305,0.0002864777544718416,-5.413849403614455e-06,157406.015625,91039.328125,291016.28125,997.8574829101562,45.40041732788086
77837499,-0.006776844869261112,-0.0029710163066481166,9.811489889654759,0.0001549333817755547,0.0003296929263714881,-0.00037706130239739856,157406.015625,91039.328125,291016.28125,997.8574829101562,45.40041732788086
77847608,0.0024606755274483305,-0.0012557138393019251,9.80844290021384,0.00033069532836896596,0.00014468061102975102,-0.00015649355770647368,157406.015625,91039.328125,291016.28125,997.8574829101562,45.40041732788086
77857820,0.004804874052400265,0.0013114060571099706,9.81772024396384,0.0005985314481157552,-0.00035367009137103394,0.00017425868430081913,157406.015625,91039.328125,291016.28125,997.8574829101562,45.40041732788086
77867748,0.0038665404814430815,-0.006899826664695602,9.817470381292942,0.0008153288497786712,-0.00026126199541891054,0.00029488709117658595,157406.015625,91039.328125,291016.28125,997.8574829101562,45.40041732788086
77877740,0.0007672703164764982,-0.010117583412895065,9.813856909308079,0.0005813132727715861,0.00011703047142959608,0.00034433266558125773,157406.015625,91039.328125,291016.28125,997.8574829101562,45.40041732788086
77887599,0.0008416718143173796,-0.003463082451591354,9.818878004583958,0.00010667762289165747,0.0004451049664030032,0.0007119851449076103,157406.015625,91039.328125,291016.28125,997.8574829101562,45.40041732788086
77897550,0.00569457023322073,-0.0031167869160269313,9.820932219061497,-5.8705395719807184e-05,0.0006555293276878254,0.0001827525499081255,157406.0,96130.5078125,286816.25,997.8483276367188,45.40203094482422
77907816,-4.044712603601397e-05,-0.0021307100246046595,9.816626379522923,-9.910543413490761e-05,5.5735928444372335e-06,6.988433381566005e-05,157406.0,96130.5078125,286816.25,997.8483276367188,45.40203094482422
77917761,-0.0024961063367179293,-0.0035833422730063014,9.814289877447727,0.0001496962639001873,0.00016598411833997293,0.00015387658789195279,157406.0,96130.5078125,286816.25,997.8483276367188,45.40203094482422
77927765,-0.006349948952799167,-0.004665784973869186,9.810598204168919,-4.5176112696135006e-05,0.00019085824727967324,-4.446381933148792e-05,157406.0,96130.5078125,286816.25,997.8483276367188,45.40203094482422
77937591,0.0034728592532822233,-0.0016950745771025233,9.80362684491599,4.145138330277934e-06,-0.0002762274760780676,-0.0002990921114999785,157406.0,96130.5078125,286816.25,997.8483276367188,45.40203094482422
77947570,0.012272017289991055,0.00702986822628035,9.802131483587864,-0.0001498283101747069,-0.0002960575455827458,-0.00044436746099591097,157406.0,96130.5078125,286816.25,997.8483276367188,45.40203094482422
77957788,0.01255732237278906,0.0038638632109071203,9.812347242865208,-0.0005573541286204267,7.33824109747255e-05,-0.0006454574962574972,157406.0,96130.5078125,286816.25,997.8483276367188,45.40203094482422
77967736,0.002913521816129361,0.00031181381248487905,9.821964094671848,-0.0006250090675231326,0.0003336205610512005,-0.00013634013009350589,157406.0,96130.5078125,286816.25,997.8483276367188,45.40203094482422
77977786,0.004182094921464596,-0.006339870829353195,9.81893331769431,-0.0002770762959763664,0.000553429103220831,0.0004299880034793184,157406.0,96130.5078125,286816.25,997.8483276367188,45.40203094482422
77987593,0.010297255803937588,-0.009975798864135604,9.817479918036106,0.00030762515852337,0.0001473610756338056,0.0005691552447658049,157406.0,96130.5078125,286816.25,997.8483276367188,45.40203094482422
77997646,0.010023141493196164,-0.0030515272805784754,9.81273920300925,0.000247181275692929,0.0001829534613907052,0.0005458965112026797,157193.875,96342.625,284416.28125,997.856689453125,45.40794372558594
78007752,0.0024614801901527983,0.005823872547378678,9.806592772040013,0.00032949488267411707,-4.88520107492624e-05,0.000536634391782807,157193.875,96342.625,284416.28125,997.856689453125,45.40794372558594
78017739,-0.004538057158594455,0.006784401397934098,9.81307108167136,0.0003891357617184263,1.1112953999097816e-05,0.0006237712019626068,157193.875,96342.625,284416.28125,997.856689453125,45.40794372558594
78027741,-0.002444302449827518,-0.004557356674442153,9.814649412665013,0.0003142759076516819,0.00023397842427670898,-5.8583608161190805e-05,157193.875,96342.625,284416.28125,997.856689453125,45.40794372558594
78037610,0.0011258891123482329,-0.007506557245025497,9.81193811658347,0.00040539228829664407,-6.675975770035816e-05,8.890436732117245e-05,157193.875,96342.625,284416.28125,997.856689453125,45.40794372558594
78047591,0.006381774534578,-0.00321902378297792,9.814311811957005,0.00010084362910936814,0.0001687267487258831,0.0003965049778614209,157193.875,96342.625,284416.28125,997.856689453125,45.40794372558594
78057753,-0.001629901836519565,9.097115301145986e-05,9.821805784735325,-1.2963833075554629e-05,5.6754199377744816e-05,0.00047073502503708163,157193.875,96342.625,284416.28125,997.856689453125,45.40794372558594
78067803,-0.006288690279131259,0.0016723494341279455,9.813913176092747,-0.0002620728057146329,-4.241310179215499e-06,0.00025736103419121513,157193.875,96342.625,284416.28125,997.856689453125,45.40794372558594
78077802,-0.00823418588460001,0.004921577434768815,9.808389494452122,-0.00023339274158126446,0.0003671561627388181,5.842577741504805e-05,157193.875,96342.625,284416.28125,997.856689453125,45.40794372558594
78087573,-0.006134239743357028,0.0030348520090485998,9.80449182752097,-0.00020619113748318287,0.0002971385603277193,-3.862591835995978e-05,157193.875,96342.625,284416.28125,997.856689453125,45.40794372558594
78097552,0.002347843934888516,0.0005654837300683446,9.817389318976048,0.00022397847969194172,-1.042997779136581e-05,-9.545200588973081e-05,156557.5,98888.2109375,288166.25,997.8566284179688,45.40203094482422
78107819,0.009848678697938595,0.0023305486252213903,9.831476995978,0.0003320261883280915,2.0213612643554232e-05,0.00010638009701296845,156557.5,98888.2109375,288166.25,997.8566284179688,45.40203094482422
78117714,0.007029967595929776,0.001973762672176499,9.822613546881321,0.00012141773803967279,8.276870916319954e-05,0.00026600267449766556,156557.5,98888.2109375,288166.25,997.8566284179688,45.40203094482422
78127772,-0.0024494508010199922,-0.004032746393451553,9.813088247809056,0.0005554651132050645,0.000233701108428202,0.0002902243956029431,156557.5,98888.2109375,288166.25,997.8566284179688,45.40203094482422
78137547,-0.007916984866266574,-0.0029389341065977626,9.81597692731345,0.0009454549861337733,0.00031081814644580647,0.00025484148648474524,156557.5,98888.2109375,288166.25,997.8566284179688,45.40203094482422
78147552,0.0015745779770561796,-0.002799720008144241,9.818227598700169,0.0009244395758222532,-0.00013022068911509646,7.160938939430474e-06,156557.5,98888.2109375,288166.25,997.8566284179688,45.40203094482422
78157758,0.007157685448522244,0.007386616926422257,9.81248457196677,0.0003535070853039366,-0.0005903927902718826,0.00015733992916438887,156557.5,98888.2109375,288166.25,997.8566284179688,45.40203094482422
78167785,-0.0017175877195647615,0.0025255899240876623,9.80956537488425,-0.0001767196674401197,-0.0007000470012454136,0.00039363528197072605,156557.5,98888.2109375,288166.25,997.8566284179688,45.40203094482422
78177831,0.001981632997388516,0.0012657339980508275,9.80506212476218,4.186238838236075e-05,-0.0005664479048019095,0.0003813529998566971,156557.5,98888.2109375,288166.25,997.8566284179688,45.40203094482422
78187536,0.001987891485089932,0.003797582845916886,9.809152433905247,0.0003011779033776116,-5.771716847362054e-05,0.00021364130373485545,156557.5,98888.2109375,288166.25,997.8566284179688,45.40203094482422
78197612,0.003990041305417691,-0.0013624657580946498,9.809586355719212,0.00012483246863928852,0.00033836369961222574,0.000412406786954032,161118.3125,97721.5,285766.28125,997.8622436523438,45.40203094482422
78207759,0.004925133873815213,-0.004576527018318038,9.819472143683079,-0.0005484893929016102,0.00022728436137271988,0.0006110480550248192,161118.3125,97721.5,285766.28125,997.8622436523438,45.40203094482422
78217759,-0.0017535069686225313,-0.0034031723330114894,9.822289297613743,6.297136750879925e-05,0.0004444994321065204,0.00024727636776305893,161118.3125,97721.5,285766.28125,997.8622436523438,45.40203094482422
78227771,-0.007997123311167087,-0.0009856824467276148,9.818042585882786,0.00010438117059755366,0.00045988112664503917,-0.000191890960532239,161118.3125,97721.5,285766.28125,997.8622436523438,45.40203094482422
78237566,-0.003983048508768405,-0.009903938014278274,9.814593145880345,0.0001536782063275319,0.0007039766698116617,-0.00019863620979804387,161118.3125,97721.5,285766.28125,997.8622436523438,45.40203094482422
78247527,0.0008868372338959318,-0.004751764673957687,9.8023021912905,0.00010710021050988924,0.00029689231281822487,-0.0001942401489671304,161118.3125,97721.5,285766.28125,997.8622436523438,45.40203094482422
78257752,0.003707939972276364,-0.004123524267444473,9.810735533270481,0.00022436509497572897,0.00012623221859116515,4.5272205440576216e-06,161118.3125,97721.5,285766.28125,997.8622436523438,45.40203094482422
78267782,0.0078504925864884,-0.00012594505048738047,9.820294210943821,9.332910739693087e-05,5.3605208578071914e-05,-8.915454815933323e-05,161118.3125,97721.5,285766.28125,997.8622436523438,45.40203094482422
78277764,-0.001220753203039493,-0.0029741604516600184,9.817454168829563,-0.0001601746491424996,-0.00018905166676545573,-0.00036817235229164204,161118.3125,97721.5,285766.28125,997.8622436523438,45.40203094482422
78287553,-0.0008645483952811617,-0.008185983140239578,9.80856783154929,8.713835011695284e-06,-0.00048001109995225505,-0.00012569325042050174,161118.3125,97721.5,285766.28125,997.8622436523438,45.40203094482422
78297583,0.0046901276606270415,0.0005383710672761388,9.800527403387669,0.00031769327942391155,-2.076144470179511e-05,-8.97567355153135e-05,157618.140625,101009.546875,282016.28125,997.8422241210938,45.40471649169922
78307826,0.006937327076787625,-0.0025936593005751185,9.809290716681126,-6.710657290306646e-05,0.0005792583452975558,-4.69944410454466e-05,157618.140625,101009.546875,282016.28125,997.8422241210938,45.40471649169922
78317743,-3.402839308108696e-06,-0.007752962846526962,9.827754805121067,-0.0002694277511246759,0.0005204324608175264,-6.17889730804584e-05,157618.140625,101009.546875,282016.28125,997.8422241210938,45.40471649169922
78327805,0.003945188810224209,-0.0021452684590910487,9.821678946051243,-0.000154858441607866,0.000331634835802968,0.00031743377042375663,157618.140625,101009.546875,282016.28125,997.8422241210938,45.40471649169922
78337585,0.00494967608630148,-0.0009584356734846644,9.819237539801243,0.00028681266011779425,-2.7682888557185062e-05,0.00022033957941830316,157618.140625,101009.546875,282016.28125,997.8422241210938,45.40471649169922
78347604,0.003101581920976315,0.002183280449142594,9.819766829046848,0.000294457014017899,-0.00010560977703703625,4.1128910770292114e-05,157618.140625,101009.546875,282016.28125,997.8422241210938,45.40471649169922
78357833,-0.0007290223342231172,0.005560226302375931,9.816168615851048,-0.0002306870021194476,0.00017133880659543852,-3.976789567152315e-06,157618.140625,101009.546875,282016.28125,997.8422241210938,45.40471649169922
78367740,-0.0070544386011413,0.008731506328811783,9.811167547735813,-4.9705242482736306e-06,0.0001330663786947733,-0.0006297265848573281,157618.140625,101009.546875,282016.28125,997.8422241210938,45.40471649169922
78377766,-0.004652505527143802,0.005177579384079117,9.80331594708884,0.0002157226106581953,-0.00045441340795064405,-0.0009252337825912966,157618.140625,101009.546875,282016.28125,997.8422241210938,45.40471649169922
78387579,-0.004428451667433109,0.0006004195024873205,9.803838560614231,0.0002033632470492017,-0.0002697423277450545,-0.0007799793005418016,157618.140625,101009.546875,282016.28125,997.8422241210938,45.40471649169922
78397625,-0.006612663875227298,-0.006879561085471969,9.81071455243552,2.214791019730963e-05,0.00031817929097173675,-0.0002439978328496202,158997.0,96448.71875,289216.28125,997.8408203125,45.401493072509766
78407776,-0.0021632218462279695,-0.0055294115731810145,9.819221327337864,-0.00014255661627168538,0.0007312957369694667,0.00013602065303502763,158997.0,96448.71875,289216.28125,997.8408203125,45.401493072509766
78417780,0.0020898899334618193,-0.0074611161539648585,9.817844221624973,0.00013796637248822717,0.0006723871394032793,-0.00021789523304533055,158997.0,96448.71875,289216.28125,997.8408203125,45.401493072509766
78427803,-0.009320085654859867,-0.003990166325340133,9.807563612494114,-0.000287907548415314,0.0005059661981621937,-0.0003230656642429515,158997.0,96448.71875,289216.28125,997.8408203125,45.401493072509766
78437528,-0.010405739555960025,-0.0012959171722029261,9.800801107916477,-0.0004326179634582508,0.0002920176831511961,-0.0001728008559169232,158997.0,96448.71875,289216.28125,997.8408203125,45.401493072509766
78447607,-0.011131046126489963,0.0039573530962373205,9.807861158880833,-0.0009627068659093488,-0.00047694896953458027,0.0003533757786769436,158997.0,96448.71875,289216.28125,997.8408203125,45.401493072509766
78457742,-0.007844609926348056,0.0034510563423539586,9.815117666754368,-0.0006912845430698503,-0.0007526454227072938,0.00011503283315478051,158997.0,96448.71875,289216.28125,997.8408203125,45.401493072509766
78467743,-0.0009615773063949007,0.004131890397300858,9.811652014288548,-6.345701804741058e-05,-0.0003687211954993947,4.991387652780553e-05,158997.0,96448.71875,289216.28125,997.8408203125,45.401493072509766
78477804,-0.004350526044969882,0.004759035568466324,9.82166654828513,1.3038599757128924e-05,0.00032343804754504874,0.00010268682092800895,158997.0,96448.71875,289216.28125,997.8408203125,45.401493072509766
78487553,0.0014707243341156584,-0.003553852875003677,9.812212774786595,-0.00013828050687799933,0.0003752271060338424,5.5841622842943016e-05,158997.0,96448.71875,289216.28125,997.8408203125,45.401493072509766
78497592,0.0005311539667793852,-0.003169529576072555,9.810371229681614,-0.00010610292629928101,0.00055183790949827,6.965749492310146e-05,158572.734375,97721.515625,286216.28125,997.8530883789062,45.40256881713867
78507800,0.002841616262788449,0.0028395424892808385,9.81524450543845,0.00012273357314632503,0.0006710685612606065,0.0002449714899100379,158572.734375,97721.515625,286216.28125,997.8530883789062,45.40256881713867
78517749,0.004156442572469388,0.002174175839653153,9.82366735700095,5.643334842978273e-05,0.0001769001229521999,0.00022746255274769077,158572.734375,97721.515625,286216.28125,997.8530883789062,45.40256881713867
78527749,0.0014112314480492216,7.700131439222768e-05,9.823262045416477,0.00037172710180391786,-0.0004275822956142767,5.742511860234821e-05,158572.734375,97721.515625,286216.28125,997.8530883789062,45.40256881713867
78537554,0.0020160397785851103,0.005061976175537247,9.8203685975405,-0.00017424691869302424,-0.0003422702373964532,-3.24224951057679e-05,158572.734375,97721.515625,286216.28125,997.8530883789062,45.40256881713867
78547587,0.00522077291190115,0.002823449235191483,9.827187368902806,-0.00041669898310567024,0.00022582272335143702,0.00027326821294054547,158572.734375,97721.515625,286216.28125,997.8530883789062,45.40256881713867
78557746,0.010652536739701901,-0.0019409213850592189,9.822750875982884,-0.0006879443546559919,0.00014086886552918063,0.00035331276888400474,158572.734375,97721.515625,286216.28125,997.8530883789062,45.40256881713867
78567751,0.005791926969880734,0.008289627294769425,9.810396978888157,3.748623196661885e-06,0.00048723907652033433,2.6812277728547764e-05,158572.734375,97721.515625,286216.28125,997.8530883789062,45.40256881713867
78577791,0.0078016465800949675,0.005074820976486344,9.808983633551243,0.00015560602950507072,0.0001716235548346484,-6.083672485174453e-05,158572.734375,97721.515625,286216.28125,997.8530883789062,45.40256881713867
78587581,-0.0009158083897879976,0.009455792169799943,9.815317938360813,-0.0002874984940782446,-9.844762995185388e-05,9.676638149330551e-05,158572.734375,97721.515625,286216.28125,997.8530883789062,45.40256881713867
78597605,0.002919780303830777,0.009705744247665543,9.827411482367161,-0.0004948985890288163,-0.0004555084104677482,-0.0004907655733134581,155815.0,98994.296875,289366.28125,997.8521118164062,45.40203094482422
78607758,-0.001043615649347629,0.003389112215271134,9.82259256604636,-0.00017875933663810375,-0.0004374744547558768,-0.0003738003928177043,155815.0,98994.296875,289366.28125,997.8521118164062,45.40203094482422
78617756,0.001970472027654324,-0.0003032763192747645,9.813381979498509,5.942491297253635e-05,-0.0005203155395602627,0.00011458229130739504,155815.0,98994.296875,289366.28125,997.8521118164062,45.40203094482422
78627793,0.00021253733813253461,-0.006798811692962509,9.805820295843723,0.00012930115807910679,-0.00030127030355202094,0.0004206593235991911,155815.0,98994.296875,289366.28125,997.8521118164062,45.40203094482422
78637597,0.0025649315017410856,-0.011368759412536483,9.808221647772434,0.0003136548319097352,-0.0002300428403569205,8.203390610078508e-05,155815.0,98994.296875,289366.28125,997.8521118164062,45.40203094482422
78647546,-0.004168724427824344,-0.00912928624845491,9.805764982733372,-0.0003661002858344722,-0.0002777014686753793,-0.00018883855079393676,155815.0,98994.296875,289366.28125,997.8521118164062,45.40203094482422
78657799,-0.002986667464380588,0.0007615457584763952,9.809015104803684,-0.0006756135273527611,-0.00031336614652814404,-0.00011510015462618163,155815.0,98994.296875,289366.28125,997.8521118164062,45.40203094482422
78667720,-0.0004924664002707857,-0.0012000431010817103,9.813577482733372,-0.00016564279322403254,-0.0002199401732096268,-7.197062802361166e-05,155815.0,98994.296875,289366.28125,997.8521118164062,45.40203094482422
78677767,-0.004764741073255863,0.008155129413833756,9.817158529791477,0.0002832176385644567,0.0002608157866606669,-5.420558442920288e-05,155815.0,98994.296875,289366.28125,997.8521118164062,45.40203094482422
78687558,-0.008982067714338626,0.007159672241439957,9.809532949957493,8.152628906180378e-05,0.0006085244005052553,-0.0004247377131562664,155815.0,98994.296875,289366.28125,997.8521118164062,45.40203094482422
78697522,-0.005304647396211948,-0.006349116999873977,9.806950399908665,-0.00031415262602160456,0.0005892067330395983,-0.00022478205789439222,161224.390625,96554.765625,287716.28125,997.8603515625,45.40686798095703
78707776,0.001218216707105313,-0.00981147630907045,9.80714018109763,-0.00038687093293185117,0.0002902967736562894,-0.0004219582682438179,161224.390625,96554.765625,287716.28125,997.8603515625,45.40686798095703
78717778,0.0003283566135117155,0.004658929567566056,9.81043607953513,-0.00036821465001332345,3.7138974349498174e-05,0.00018135002176650027,161224.390625,96554.765625,287716.28125,997.8603515625,45.40686798095703
78727780,0.004421467174882565,0.005772746663322587,9.813985655340794,-3.8928240616878084e-05,0.0003948257418787287,9.795987864863286e-05,161224.390625,96554.765625,287716.28125,997.8603515625,45.40686798095703
78737598,0.008311877240533505,0.003524280648460526,9.816976377997044,0.0003857127729069185,0.0006573866759399132,-0.00017887936553079477,161224.390625,96554.765625,287716.28125,997.8603515625,45.40686798095703
78747584,0.004972914447183285,0.002547047596206803,9.814765760931614,0.0002884891862712544,0.0007434659111285762,2.0415879480149437e-05,161224.390625,96554.765625,287716.28125,997.8603515625,45.40686798095703
78757773,-0.0034233608943274874,-0.0008924384305571131,9.809854338202122,0.0005344475492100906,0.0001337178890852991,-3.415622120001195e-05,161224.390625,96554.765625,287716.28125,997.8603515625,45.40686798095703
78767728,-0.0020734423500350374,-0.0016754124949072413,9.814648458990696,0.00038393688627627907,-0.0002331356171080662,0.00015019428395107547,161224.390625,96554.765625,287716.28125,997.8603515625,45.40686798095703
78777791,-0.000885350416307773,-0.004031956631908279,9.812866041693333,-0.0004257280972589064,0.0001313559415766102,0.0002905209054276363,161224.390625,96554.765625,287716.28125,997.8603515625,45.40686798095703
78787537,0.006370621015424405,-0.004833072860011917,9.8099344468447,-0.0007122795807000507,-0.00012440361921021772,4.991320713970503e-05,161224.390625,96554.765625,287716.28125,997.8603515625,45.40686798095703
78797540,0.005930947353238736,-0.006665617663631301,9.81286127332175,-0.0007894917518634606,0.00017011201102008986,-3.519733433704665e-05,157193.859375,99948.8671875,287116.28125,997.8516845703125,45.40525436401367
78807840,-0.002159474204187717,-0.0065159504006002955,9.810611555609348,-0.000912455086297195,0.0002039115698980348,3.6528975788039807e-05,157193.859375,99948.8671875,287116.28125,997.8516845703125,45.40525436401367
78817737,0.0015318265455910307,0.003527886729469437,9.81082327130759,-0.00021786750695093306,0.00026058023480886533,-0.0004956997203137709,157193.859375,99948.8671875,287116.28125,997.8516845703125,45.40525436401367
78827787,-0.0013143175941756624,0.008134908538093705,9.80480463269675,-9.022475679295841e-05,0.00014908819788702008,-5.808171260496443e-05,157193.859375,99948.8671875,287116.28125,997.8516845703125,45.40525436401367
78837563,-0.002501209984426822,0.0010807584335709997,9.808746168646458,3.597384492684849e-05,-1.2948026650567182e-05,0.00010421871559601435,157193.859375,99948.8671875,287116.28125,997.8516845703125,45.40525436401367
78847592,-0.0038518512350371736,0.003487906913986344,9.815083334478977,9.232004121520784e-05,0.00016927613081947843,0.00035411344436369995,157193.859375,99948.8671875,287116.28125,997.8516845703125,45.40525436401367
78857802,-0.0007692629200271028,0.010115213256111283,9.817962477240208,0.00010406711116309505,5.484466795764806e-05,-9.316958164190715e-05,157193.859375,99948.8671875,287116.28125,997.8516845703125,45.40525436401367
78867732,-0.009256487498884525,0.009240738611450333,9.814199278387669,0.00019952292386085955,0.00016761082237366995,-0.00021594690621923497,157193.859375,99948.8671875,287116.28125,997.8516845703125,45.40525436401367
78877818,-0.006364641497736301,0.006336591701736588,9.816178152594212,0.0007292794751200568,5.030951925571434e-06,2.9543728605583732e-05,157193.859375,99948.8671875,287116.28125,997.8516845703125,45.40525436401367
78887580,0.003537858118409787,0.00435725555919661,9.818898985418919,0.0005041950487728905,-1.4335537215676733e-05,0.00016073200970795164,157193.859375,99948.8671875,287116.28125,997.8516845703125,45.40525436401367
78897619,0.0031272566217133146,0.00025375143789305166,9.808358976873997,-0.0001687712949270639,0.0004570686197811918,-9.085189082752755e-05,156875.6875,97085.1015625,288466.25,997.8560791015625,45.40364074707031
78907801,-0.0017051676017096895,0.0074230502655412145,9.806959936651829,-0.00035785685868824603,0.0001857108346857311,-2.6610129107486733e-05,156875.6875,97085.1015625,288466.25,997.8560791015625,45.40364074707031
78917728,-0.001964537213449802,0.008158139448394913,9.809623549017552,-0.00019422828446033182,0.00016883721231438162,0.0004091595270708219,156875.6875,97085.1015625,288466.25,997.8560791015625,45.40364074707031
78927775,-0.003813555250768985,0.005295536976089615,9.81384355786765,0.00012866513024426294,0.00010165595280427428,0.00019656300139986137,156875.6875,97085.1015625,288466.25,997.8560791015625,45.40364074707031
78937568,-0.004935150752668704,-0.00017468674875245616,9.815907309088352,-4.94369961153954e-06,-0.00019717157725522352,-0.0001209007226591914,156875.6875,97085.1015625,288466.25,997.8560791015625,45.40364074707031
78947604,-0.00263219864190134,0.0029099802782441564,9.820728132757786,-0.00011720854782390181,0.00026932728918923005,-0.00028261494878306827,156875.6875,97085.1015625,288466.25,997.8560791015625,45.40364074707031
78957789,-0.006596369455461826,0.0036908011248017736,9.818352530035618,5.782681436619949e-05,0.0004967456972198741,-0.00023421356160752317,156875.6875,97085.1015625,288466.25,997.8560791015625,45.40364074707031
78967727,-0.012521190355425205,-0.0014519993851278834,9.812515089544895,-0.0002192356780207041,9.449789480727109e-05,-0.00024589126985147437,156875.6875,97085.1015625,288466.25,997.8560791015625,45.40364074707031
78977770,-0.004021478603487338,-0.0026264418552015834,9.816657850775364,-0.0002736015023466456,0.00015076622106875934,-0.00044285336332022986,156875.6875,97085.1015625,288466.25,997.8560791015625,45.40364074707031
78987548,-0.0001414173942855257,-0.0011625741312597804,9.809736082586888,-0.00013945782957955035,0.00032094773463627263,-0.00019195885976869455,156875.6875,97085.1015625,288466.25,997.8560791015625,45.40364074707031
78997612,-0.0023554468256286043,-0.006246999342212539,9.803240606817845,-5.3273209420803523e-05,0.0003430691923685552,-0.0004646436631176605,160163.734375,98463.953125,283216.28125,997.8502197265625,45.396121978759766
79007816,-0.0005158686739257234,-0.004432455141315322,9.801300833258274,-1.709315321199195e-07,0.00023317080753344985,-0.0007584621984008683,160163.734375,98463.953125,283216.28125,997.8502197265625,45.396121978759766
79017766,-0.004150656769876804,-0.0059182126710508876,9.811203787359837,-0.00020929711282144072,-8.863114871066638e-06,-0.0003145627182405426,160163.734375,98463.953125,283216.28125,997.8502197265625,45.396121978759766
79027744,-0.004225550006037082,-0.003146045346031051,9.820708105597141,6.921025014242385e-05,0.0004101935829939501,6.990952318092035e-05,160163.734375,98463.953125,283216.28125,997.8502197265625,45.396121978759766
79037577,-0.002732133279447879,-0.0014711250255201869,9.813804457220677,-0.00012159536818864528,0.0010450098253758804,4.5720471125330496e-05,160163.734375,98463.953125,283216.28125,997.8502197265625,45.396121978759766
79047604,-0.0007722431522658724,-0.003710620541343551,9.811774084601048,-0.0001594784273103136,0.0006980688832672493,-2.4996427210046255e-05,160163.734375,98463.953125,283216.28125,997.8502197265625,45.396121978759766
79057800,0.003352100242967282,0.005710385303726334,9.816964933905247,-0.00023278693079839232,0.0005145363449091272,-0.0002535586448814704,160163.734375,98463.953125,283216.28125,997.8502197265625,45.396121978759766
79067791,0.008727977265710507,0.0041793803980256505,9.821927855047825,0.00018968967087210385,0.0002084657372879045,-8.1493947045876e-05,160163.734375,98463.953125,283216.28125,997.8502197265625,45.396121978759766
79077816,-0.0025498995286277193,-0.001825288374194961,9.825026342901829,0.00017713996821192322,0.00020672009681306722,0.0004818351968694494,160163.734375,98463.953125,283216.28125,997.8502197265625,45.396121978759766
79087506,-0.009701339314585056,-0.000935681600341659,9.811576674017552,0.0002638867870636028,0.0002837232951978402,-4.322935974689477e-06,160163.734375,98463.953125,283216.28125,997.8502197265625,45.396121978759766
79097561,-0.006984350989466037,0.00043582872652067617,9.8092659211489,-0.00010973477875006158,-7.597811290044912e-06,-0.00021719074572529486,151996.609375,98357.8984375,287416.28125,997.8673706054688,45.410091400146484
79107754,0.003926085521573697,-0.0011121560523603968,9.814676115545872,-0.00012129268835189525,-0.00011429836182201339,-0.0004625568893700822,151996.609375,98357.8984375,287416.28125,997.8673706054688,45.410091400146484
79117736,0.0029127544063278776,0.0011856179048921056,9.821405241522434,8.888584015301656e-05,-5.844272696690691e-05,0.00038183373692818144,151996.609375,98357.8984375,287416.28125,997.8673706054688,45.410091400146484
79127802,0.002533318688268338,0.0013965289404298253,9.81737787488425,0.00035325216485296605,-0.0002612273909644975,0.0004590426193587498,151996.609375,98357.8984375,287416.28125,997.8673706054688,45.410091400146484
79137616,0.001458930065030728,0.0026760022451783605,9.816436598333958,0.0003181724448885512,-0.00038420198858061866,6.428000927344123e-05,151996.609375,98357.8984375,287416.28125,997.8673706054688,45.410091400146484
79147557,-0.001211454878454532,0.0022177468349839635,9.816988775763157,7.065159915589955e-05,-0.0002332061938969238,0.0002824407507702724,151996.609375,98357.8984375,287416.28125,997.8673706054688,45.410091400146484
79157742,-0.0021808350187590975,0.0006498094012643285,9.817795584234837,-2.7776969734185896e-05,-0.00020170810772383643,7.443253855826491e-05,151996.609375,98357.8984375,287416.28125,997.8673706054688,45.410091400146484
79167761,-0.0022057646614364046,-0.0015565384814833216,9.813529799017552,-0.0005307691764820624,0.0002717309890985669,-0.0003215018863286807,151996.609375,98357.8984375,287416.28125,997.8673706054688,45.410091400146484
79177807,0.007638307501668606,0.0033258865883256383,9.812305281195286,-0.0001044550455909479,0.000308715685733612,8.953357030777419e-05,151996.609375,98357.8984375,287416.28125,997.8673706054688,45.410091400146484
79187568,0.005985023667211209,6.596700452818349e-05,9.817129919561985,0.0005548766919608902,0.0003903574307887064,0.0002358868456482903,151996.609375,98357.8984375,287416.28125,997.8673706054688,45.410091400146484
79197616,0.00410782753407446,0.0010042111685182042,9.812976667914036,0.0003125701321486127,0.0002707211589412944,0.00021904847529158154,155708.953125,100797.40625,275716.25,997.8432006835938,45.404178619384766
79207794,0.004802527119512234,-0.0008719642350767665,9.812700102362278,0.00024917637237456856,0.0002159847409902321,-0.0005151881108488871,155708.953125,100797.40625,275716.25,997.8432006835938,45.404178619384766
79217756,-0.002270085523729648,0.003169796924820084,9.81698019269431,0.00031271990046014307,1.146960688942986e-05,-0.0007356695917863382,155708.953125,100797.40625,275716.25,997.8432006835938,45.404178619384766
79227795,0.002315456261033688,0.001095011394252915,9.815847227606419,0.00039126037044559834,-9.038844460433406e-05,-0.00020063533736020168,155708.953125,100797.40625,275716.25,997.8432006835938,45.404178619384766
79237523,0.0023843592303940397,-0.0012158904860113673,9.816039869818333,0.00022831874847986964,-0.00012609504652487172,0.0006183917663563059,155708.953125,100797.40625,275716.25,997.8432006835938,45.404178619384766
79247601,0.001827964772576962,-0.008597977895507675,9.805515120062473,0.0002235414565738034,-0.0004529158994583233,0.00039495741078071454,155708.953125,100797.40625,275716.25,997.8432006835938,45.404178619384766
79257823,-0.0032534206014922518,-0.011605024773845535,9.805572340521458,0.0001290059870306146,-0.0005811277604689641,-3.353475255635409e-05,155708.953125,100797.40625,275716.25,997.8432006835938,45.404178619384766
79267768,-0.00010156423867258013,-0.00510367794729219,9.807849714789036,0.00016129386385080633,0.00018012624617854076,0.0002817528817374275,155708.953125,100797.40625,275716.25,997.8432006835938,45.404178619384766
79277750,-0.005254251669054355,0.001424334507217545,9.815110991034153,6.068782276350301e-05,0.0007666476941639738,-0.00010800203596800407,155708.953125,100797.40625,275716.25,997.8432006835938,45.404178619384766
79287573,-0.006215577731733646,0.0014042551925088353,9.80988390210593,-3.840277901981079e-06,0.0006195764928097086,-0.000672461892800404,155708.953125,100797.40625,275716.25,997.8432006835938,45.404178619384766
79297577,-0.006489610086088504,0.007140256028404374,9.8121956086489,-0.00016148437972071352,0.00014526352255502193,-0.0005713869089689089,161648.65625,97827.5625,286666.25,997.8713989257812,45.40632629394531
79307816,-0.0020097324353507418,0.015452049236526627,9.814006636175755,-5.651944963682962e-06,4.738147812617885e-05,-0.0005007726343777014,161648.65625,97827.5625,286666.25,997.8713989257812,45.40632629394531
79317717,0.0033370575207420927,0.009700052004089493,9.816713163885716,0.00023134046822895525,8.27007226152526e-05,-0.0001853878405839189,161648.65625,97827.5625,286666.25,997.8713989257812,45.40632629394531
79327758,-0.006005352149610843,-0.00011839761234269663,9.811223814520481,0.00016809739353710083,0.0005389025665326224,0.0003651832900047318,161648.65625,97827.5625,286666.25,997.8713989257812,45.40632629394531
79337559,-0.005438832352762546,-0.007730573851833206,9.807996580633763,2.895418655760348e-05,0.000708435551260616,0.00032933915793337086,161648.65625,97827.5625,286666.25,997.8713989257812,45.40632629394531
79347564,0.0035172423618980986,-0.011014752526054244,9.817836592230442,2.9491834350556546e-05,0.00024078984837701487,0.0004707856365982459,161648.65625,97827.5625,286666.25,997.8713989257812,45.40632629394531
79357731,0.005518475760812436,-0.005439512867698532,9.815533468756321,0.0001392104448249307,2.7485495721473716e-05,0.0002435188449723662,161648.65625,97827.5625,286666.25,997.8713989257812,45.40632629394531
79367747,0.004543641795510922,0.001504048269024033,9.817630598578098,0.00028691685183082936,0.0003774183334289299,0.0002478985640024782,161648.65625,97827.5625,286666.25,997.8713989257812,45.40632629394531
79377764,-0.005665821741228427,-0.0003893901298140101,9.812678167853,0.0006920698204274964,0.0006098396317074256,0.0001396887761345149,161648.65625,97827.5625,286666.25,997.8713989257812,45.40632629394531
79387543,-0.006837492595320072,-0.0013008867094610743,9.818636724981907,0.0004176587088230741,0.000310307577948104,-8.564878805400645e-05,161648.65625,97827.5625,286666.25,997.8713989257812,45.40632629394531
79397467,0.0033606460589119536,-0.0038498420903776698,9.81759817365134,0.00013474412734729467,0.000463130220069568,-6.701581002771696e-05,161118.3125,94327.390625,283066.25,997.796875,45.40095520019531
79407766,0.0064669868248650175,-0.0012809266040419154,9.813669989142063,-0.0003090683614637959,0.00047809191723076567,5.0372321884149405e-05,161118.3125,94327.390625,283066.25,997.796875,45.40095520019531
79417743,-0.00029042900622400225,0.00016454563640608266,9.810110876593235,-0.0004122519178118813,-0.00017311688303293718,0.0004589003889393077,161118.3125,94327.390625,283066.25,997.796875,45.40095520019531
79427765,-0.003921223590975131,0.001216880541076798,9.81035120252097,-0.0001838369946263987,-0.0006191321243559761,0.00029727666117623607,161118.3125,94327.390625,283066.25,997.796875,45.40095520019531
79437544,-0.010038157711630191,-0.005871400673160415,9.811624357733372,0.0002353560837881383,-0.00045165640209147767,-0.0001821084500718846,161118.3125,94327.390625,283066.25,997.796875,45.40095520019531
79447570,-0.009157163808946933,-0.009310782391795974,9.81510145429099,0.00042089802336056945,-7.791234553137852e-05,-0.00043454768308065673,161118.3125,94327.390625,283066.25,997.796875,45.40095520019531
79457780,-0.0024541372162154573,-0.005012348730335098,9.824204275641087,0.00022376453743425427,-6.861086318081302e-05,-5.073068166011786e-05,161118.3125,94327.390625,283066.25,997.796875,45.40095520019531
79467744,-0.0037688219648650545,-0.0017051179597471766,9.814316580328587,-9.160934242310706e-05,-0.00013555812789404822,0.00024007338800374577,161118.3125,94327.390625,283066.25,997.796875,45.40095520019531
79477757,-0.003070091615324344,-5.228861070619151e-05,9.810121367010716,-0.0001833291764406744,-3.9980464734119006e-05,0.0003562798170875774,161118.3125,94327.390625,283066.25,997.796875,45.40095520019531
79487559,0.00557363985955206,-0.005958877939948898,9.811476538214329,0.0001465340454095718,6.105487968029397e-05,-4.0622623028232065e-05,161118.3125,94327.390625,283066.25,997.796875,45.40095520019531
79497548,-0.0026281082731536287,-0.007210247654685836,9.811820814642552,0.0006524192856821906,0.00035550188307838454,-0.00029462854433432063,162072.90625,97827.5703125,280816.25,997.8579711914062,45.40310287475586
79507752,-0.00832491160452875,-0.004285730857620101,9.814969847235325,0.00041355384636779544,0.0005033267135704116,-0.0004120169818364068,162072.90625,97827.5703125,280816.25,997.8579711914062,45.40310287475586
79517718,-0.0019279995662024874,-0.006131425935993057,9.815501043829563,0.00020875553199664918,0.00032136086350960597,-0.00026775694856978795,162072.90625,97827.5703125,280816.25,997.8579711914062,45.40310287475586
79527791,0.0052850192683884245,-0.0026933480689619593,9.813278982672337,-0.00014654544175493302,0.00028436637343561217,-0.0001671461708340778,162072.90625,97827.5703125,280816.25,997.8579711914062,45.40310287475586
79537614,0.0017830005186745268,0.0002608369400407262,9.813693830999973,-0.00041673018241191985,0.00025847308837996736,4.390785909863347e-05,162072.90625,97827.5703125,280816.25,997.8579711914062,45.40310287475586
79547580,-0.0022405737739852327,4.9992959728378805e-05,9.819463560614231,-0.0003556095773156989,6.439140101151483e-05,0.0005944745877329276,162072.90625,97827.5703125,280816.25,997.8579711914062,45.40310287475586
79557748,-0.003928912590151157,0.0003672386815453954,9.816668341192845,-0.00014849969121052655,0.0004000446989638911,0.0003584872844200597,162072.90625,97827.5703125,280816.25,997.8579711914062,45.40310287475586
79567741,-0.011790005276804294,-0.001006991107234817,9.81358320477927,-2.068562135456834e-05,0.00039746283995641335,4.4641945014243665e-05,162072.90625,97827.5703125,280816.25,997.8579711914062,45.40310287475586
79577812,-0.011146222959165897,-0.0013091643045042567,9.811508963141087,0.0004930415005154651,0.00020085800328247192,-0.00020872947640810004,162072.90625,97827.5703125,280816.25,997.8579711914062,45.40310287475586
79587575,-0.013746110509043064,0.0021965126802827306,9.81458360913718,0.0004504635278798383,0.00019414386964940409,-0.00013335362597927293,162072.90625,97827.5703125,280816.25,997.8579711914062,45.40310287475586
79597616,-0.007959244559412326,0.0026435475160981603,9.81691629651511,0.00019144364231840936,0.00023064224491549598,-1.1103113475021252e-05,158996.984375,94115.25,281416.28125,997.8641357421875,45.401493072509766
79607828,0.002227263738507901,-0.0021120537707899623,9.817775557074192,-0.00030134234221542957,0.00035748290805799826,-0.0001246811501644536,158996.984375,94115.25,281416.28125,997.8641357421875,45.401493072509766
79617756,0.00517962335526434,0.0006079594900514074,9.817442724737766,-0.0004669106867432851,0.0006616580123054044,0.0003005688864775018,158996.984375,94115.25,281416.28125,997.8641357421875,45.401493072509766
79627746,0.007607253481740628,0.0031900028993989415,9.817618200811985,-0.00060057418996359,0.00031751736800374403,0.00038195897071063677,158996.984375,94115.25,281416.28125,997.8641357421875,45.401493072509766
79637575,0.0023041015762039763,0.005518219928970475,9.81936056378806,-0.0005452316265356053,-0.00011256260937357379,0.00036587651414238075,158996.984375,94115.25,281416.28125,997.8641357421875,45.401493072509766
79647637,0.003194609870309506,-0.003148094255695205,9.821246931585911,2.9993480705234633e-05,8.017410631596053e-05,0.000446792526081206,158996.984375,94115.25,281416.28125,997.8641357421875,45.401493072509766
79657815,0.005936892916555081,-0.00338842018342958,9.819179365667942,0.0006907170743878674,-0.00010287858627548499,0.0001305558558939972,158996.984375,94115.25,281416.28125,997.8641357421875,45.401493072509766
79667791,0.005766334225530301,-0.0008238111326788478,9.81943208936179,0.0003879446874569845,2.792340650644096e-05,-0.00026459109210036537,158996.984375,94115.25,281416.28125,997.8641357421875,45.401493072509766
79677782,-0.002843482206468906,-0.0029790256807898097,9.806204626593235,-2.460615469964925e-05,0.00028669057623205646,-0.0007064422446731462,158996.984375,94115.25,281416.28125,997.8641357421875,45.401493072509766
79687541,-0.00461487264454874,-0.0025044460485075526,9.810078451666477,-0.00030017830541248205,-2.3608075806853004e-05,-0.0005872991372328235,158996.984375,94115.25,281416.28125,997.8641357421875,45.401493072509766
79697550,-0.0037696117264083284,0.004973835807075638,9.821713278326634,0.00017274559540317623,-0.00023247507657202018,4.520665573154269e-05,159103.078125,98251.828125,285916.25,997.8345336914062,45.39773178100586
79707832,-0.005884444127683963,0.009075752954712052,9.825362036261204,0.0003394814837455493,1.3963732399995796e-05,-0.0003154505887962862,159103.078125,98251.828125,285916.25,997.8345336914062,45.39773178100586
79717712,-0.010927883694773044,0.0037100534250642248,9.819523642096165,0.00012858868903356833,0.00037112509575394853,0.0001424106027386167,159103.078125,98251.828125,285916.25,997.8345336914062,45.39773178100586
79727750,-0.007810769389276828,-0.003032379288444381,9.811909506353977,1.553298515580589e-05,0.00028207766276040986,-8.615628487880314e-07,159103.078125,98251.828125,285916.25,997.8345336914062,45.39773178100586
79737559,-0.006673795889025058,-0.004417062241802078,9.810314962896946,-0.0003008230134647596,0.00014799816393947171,-0.00011068309538159361,159103.078125,98251.828125,285916.25,997.8345336914062,45.39773178100586
79747556,-0.00011470706284555376,-0.002032854099044662,9.808854887518528,-0.000512808562422942,0.0005540403709719138,8.557264084601933e-05,159103.078125,98251.828125,285916.25,997.8345336914062,45.39773178100586
79757773,-0.007293825755720462,0.0033123712351228185,9.816567251715306,-0.00014330023369177016,0.0005478256554315047,0.0005140154186207817,159103.078125,98251.828125,285916.25,997.8345336914062,45.39773178100586
79767716,0.0010863339799591643,-0.0023770038673971705,9.809950659308079,0.00040901702486087797,0.0005060624445295142,0.00016806316273659626,159103.078125,98251.828125,285916.25,997.8345336914062,45.39773178100586
79777812,0.0034031814235397917,-0.0039512072393988185,9.80240328076804,0.00016077683430274246,0.00044053985597288176,-0.0004141968878414466,159103.078125,98251.828125,285916.25,997.8345336914062,45.39773178100586
79787529,-0.0018854269486716646,-0.007670052785644393,9.80008394483054,-0.0005118226410623897,0.00035034305450694575,-0.00023522331900521955,159103.078125,98251.828125,285916.25,997.8345336914062,45.39773178100586
79797568,-0.0035111585360816377,0.0037934850265885778,9.807122061285618,-0.0004958275250893343,0.00043496257252713605,-2.3257447874404767e-05,159103.0625,99736.7578125,287866.28125,997.8264770507812,45.40471649169922
79807753,-0.007888546000128116,0.004342324595680375,9.810808012518528,-0.00048639613779152515,0.0008328264285782532,0.0003464305860959009,159103.0625,99736.7578125,287866.28125,997.8264770507812,45.40471649169922
79817720,0.00010618775069204389,0.006483099918594498,9.81374246839011,-0.0003603341767367232,0.00020901455549478473,0.00022959017372131506,159103.0625,99736.7578125,287866.28125,997.8264770507812,45.40471649169922
79827783,-0.007044499526625003,0.006252161722412247,9.813832113775852,0.00021514994913821337,0.00019175269166312123,2.99253002865023e-05,159103.0625,99736.7578125,287866.28125,997.8264770507812,45.40471649169922
79837551,-0.009018687317972507,0.006890736084213395,9.810967276129368,-4.021242791276944e-06,3.13216788899334e-05,-0.00013974114551301887,159103.0625,99736.7578125,287866.28125,997.8264770507812,45.40471649169922
79847583,0.0010418093103119475,0.006461970072021622,9.812805006537083,6.98979409143072e-05,-0.0002374471458634181,-0.00016021838234364828,159103.0625,99736.7578125,287866.28125,997.8264770507812,45.40471649169922
79857758,-0.0036860534650138277,-0.0005967397878264002,9.806159803900364,0.0002927781886618328,-0.0004108800729764445,0.00014895243805740187,159103.0625,99736.7578125,287866.28125,997.8264770507812,45.40471649169922
79867786,-0.0008628645640662569,-0.00020410164094911143,9.81045706037009,0.00047252411495072065,-0.0005204977295389219,0.00016287390611041496,159103.0625,99736.7578125,287866.28125,997.8264770507812,45.40471649169922
79877802,0.0029164871472069365,-0.002163328666457992,9.81505090955222,0.0003126883810117584,-0.0011581060769995494,-6.729226731322547e-05,159103.0625,99736.7578125,287866.28125,997.8264770507812,45.40471649169922
79887539,-0.0010778659683516878,-0.005399682063827377,9.816057989630345,0.00011873133807319444,-0.0010527599896332069,-0.0004801528033297493,159103.0625,99736.7578125,287866.28125,997.8264770507812,45.40471649169922
79897600,-0.002064009914999332,-0.004660897392997604,9.820696661505345,-0.00030594554955961885,-0.00042410363117510513,-0.00018115770069043925,161224.375,95281.984375,289066.25,997.8591918945312,45.41062927246094
79907741,-0.0012733021479895967,0.007738925080528397,9.81289846662009,-0.0006363225995365787,-0.00047517043445536927,-1.8277662429956996e-05,161224.375,95281.984375,289066.25,997.8591918945312,45.41062927246094
79917712,-0.001327371011381473,0.006338424544563431,9.811703512701634,-0.0005134170071024705,-0.00029289270774738923,0.00011323858200712288,161224.375,95281.984375,289066.25,997.8591918945312,45.41062927246094
79927750,-0.0004886666041663545,0.004367835383644242,9.80875379804099,-0.00014062166265568467,3.221627243051248e-05,0.00031822347375936964,161224.375,95281.984375,289066.25,997.8591918945312,45.41062927246094
79937591,0.0031590333479591948,0.005922264914741654,9.819668600592259,0.0003588951938517135,-0.0002206941079376085,0.0006620654400009678,161224.375,95281.984375,289066.25,997.8591918945312,45.41062927246094
79947538,0.0023800006407448393,0.0065307091286088415,9.825331518683079,0.0001590000163495284,0.00045365532254522606,5.3330546170125435e-05,161224.375,95281.984375,289066.25,997.8591918945312,45.41062927246094
79957786,0.0027775785225578886,0.0058420966675187536,9.8262336945864,-0.00011572953481583629,0.0004303032529978262,-4.2149060728026834e-05,161224.375,95281.984375,289066.25,997.8591918945312,45.41062927246094
79967777,0.0006356036561676603,0.005468450050583024,9.825331518683079,-0.00024690013488645437,0.0004195831480873929,0.00024933608950022766,161224.375,95281.984375,289066.25,997.8591918945312,45.41062927246094
79977786,-0.006816630969648685,2.8483133545059713e-05,9.824139425787571,0.00033446293563691197,-0.00016604715516137017,8.879321251670057e-05,161224.375,95281.984375,289066.25,997.8591918945312,45.41062927246094
79987525,-0.016108525703554477,0.008302442293396134,9.81824857953513,-7.768604810473282e-05,-0.00014248233661333156,-4.274029049184015e-05,161224.375,95281.984375,289066.25,997.8591918945312,45.41062927246094
79997578,-0.011648816774492587,0.008243463497390885,9.823456594977024,-0.00037708974669578256,0.0001978801393679058,-0.0004492007632236912,154224.03125,96342.6328125,284566.25,997.86669921875,45.41170120239258
80007805,-0.007239660034780826,0.008376337151756424,9.830763647589329,4.6452251620285624e-05,-8.398966982942649e-06,-0.0005370435159150495,154224.03125,96342.6328125,284566.25,997.86669921875,45.41170120239258
80017732,-0.002284368286733951,0.007149107318153519,9.824248144659641,0.0001946704276568931,0.00039037407817972764,-0.00038988948505930444,154224.03125,96342.6328125,284566.25,997.86669921875,45.41170120239258
80027807,-0.0083921232920936,0.004928327660789628,9.82190019849265,0.0005598716077591967,5.1683097027260236e-05,-2.83851329213781e-06,154224.03125,96342.6328125,284566.25,997.86669921875,45.41170120239258
80037582,0.0014582818645187956,-0.003993094403514724,9.815298864874485,0.0006098402653086673,-8.810645691396726e-05,-4.443283830396673e-05,154224.03125,96342.6328125,284566.25,997.86669921875,45.41170120239258
80047532,0.0029355308312126738,-0.0009502400348280482,9.810931990179661,0.00013408232079462377,-0.00024893757095838026,-0.00018297079656831762,154224.03125,96342.6328125,284566.25,997.86669921875,45.41170120239258
80057740,0.006140286316270505,0.0034245471765901037,9.809957335028294,0.00023547306663465915,-0.00010299767914971394,-0.0003159831888936444,154224.03125,96342.6328125,284566.25,997.86669921875,45.41170120239258
80067779,0.001893216957444821,0.003118760447731156,9.815547773871067,0.0001256623207090166,-0.00037890433473790125,3.4912855544187314e-05,154224.03125,96342.6328125,284566.25,997.86669921875,45.41170120239258
80077767,-0.0006320083242705721,-0.003041983086833816,9.821312735113743,-0.00011571863543133024,-0.00033282834361584917,0.0001631214923961104,154224.03125,96342.6328125,284566.25,997.86669921875,45.41170120239258
80087546,-2.661139786752642e-05,-0.009695552725562911,9.818812201056126,9.356121772078093e-05,-0.0005444830693332298,0.00011709118701191777,154224.03125,96342.6328125,284566.25,997.86669921875,45.41170120239258
80097454,0.02077674328267065,-0.008546531636485916,9.809384176764134,0.0004635781504410994,-0.000855695276058261,0.00023785091764666298,157405.984375,100373.1484375,279316.28125,997.8319091796875,45.404178619384766
80107765,0.015684822787637387,-0.001301698822746139,9.812417814764622,0.00021510670084615467,-0.0006212431415943249,0.00033118885187804857,157405.984375,100373.1484375,279316.28125,997.8319091796875,45.404178619384766
80117750,0.005565392066831265,0.015448517661323685,9.814405272040013,0.0003486374905995768,-0.0003884949781959696,0.00024683550293930033,157405.984375,100373.1484375,279316.28125,997.8319091796875,45.404178619384766
80127806,-1.2276480799044975e-05,0.011041245918502945,9.813481161627415,0.00015136522305772869,5.9809876021015815e-05,0.00012480668522557402,157405.984375,100373.1484375,279316.28125,997.8319091796875,45.404178619384766
80137593,0.0029168522256561857,-0.003707796771297317,9.80941946271384,7.827566768617597e-05,0.0003194234797237621,-0.0001230274268621563,157405.984375,100373.1484375,279316.28125,997.8319091796875,45.404178619384766
80147585,0.008407036055917416,0.0032662819435502477,9.803594419989231,-0.0001602311396774161,0.000173953145477706,-0.00024945916663482627,157405.984375,100373.1484375,279316.28125,997.8319091796875,45.404178619384766
80157801,0.008235598196382199,0.006659440260162491,9.813576529059056,0.00013120751718168376,0.0001046655689978687,-0.0002128232794078051,157405.984375,100373.1484375,279316.28125,997.8319091796875,45.404178619384766
80167733,0.0020127764242836577,0.005353278975715775,9.809111425909641,0.00025880872162168143,0.0003055014441460551,8.567579209711561e-05,157405.984375,100373.1484375,279316.28125,997.8319091796875,45.404178619384766
80177838,0.0009382238882729155,-0.0023462106177900843,9.807529280218723,9.123611998155009e-05,0.0003774284906657593,-0.00015945549818780115,157405.984375,100373.1484375,279316.28125,997.8319091796875,45.404178619384766
80187623,-0.003755284259920444,-0.0012415875384901576,9.809041807684544,-0.00020409921235761376,0.0003915817416245298,-0.00037587450639903387,157405.984375,100373.1484375,279316.28125,997.8319091796875,45.404178619384766
80197592,-0.0030353123050979036,-0.002133787114391189,9.814678022894505,-0.00028683251112590315,0.0004671076950589375,-0.00017465785492304554,163557.828125,101009.5546875,281866.28125,997.8709106445312,45.40848159790039
80207752,-0.007337374399309482,0.0007961090018655248,9.812922308478,-8.102354441427398e-05,0.0004992876257719652,0.0003130975034125165,163557.828125,101009.5546875,281866.28125,997.8709106445312,45.40848159790039
80217765,-0.007292261133795108,0.003935657005539078,9.810257742437962,0.00013807538088520286,0.0002101981646237144,0.0004859534179829077,163557.828125,101009.5546875,281866.28125,997.8709106445312,45.40848159790039
80227793,-0.004217898259764041,0.0030715833713914342,9.805639097723606,0.000637497926430006,-3.919927426891459e-05,-0.00017047107973694643,163557.828125,101009.5546875,281866.28125,997.8709106445312,45.40848159790039
80237579,0.00418269096791235,-0.004237428743610244,9.813845465216282,0.0003973390837862831,-0.0001635871247881843,2.480370582795729e-07,163557.828125,101009.5546875,281866.28125,997.8709106445312,45.40848159790039
80247593,0.002331422855252896,-0.0032711107919310145,9.819444487127903,-0.00010230999869883764,-0.00021594165615083707,6.784395157382982e-05,163557.828125,101009.5546875,281866.28125,997.8709106445312,45.40848159790039
80257773,-0.003081625114088382,0.002723864774932999,9.815507719549778,-0.00023790268570075514,-0.0002666083690738125,0.0003793210286218689,163557.828125,101009.5546875,281866.28125,997.8709106445312,45.40848159790039
80267765,-0.0037551203471473116,0.005155287246933121,9.812312910589817,-0.00010113844583167467,-0.0002157757643172337,0.0002673059876812638,163557.828125,101009.5546875,281866.28125,997.8709106445312,45.40848159790039
80277828,-0.0010057070952704805,-0.0006586019585226588,9.81175215009177,0.00020445608133093683,-9.606267290933115e-05,-9.768774759350186e-05,163557.828125,101009.5546875,281866.28125,997.8709106445312,45.40848159790039
80287591,-0.00023034007370981158,0.002583436231842179,9.811593840155247,9.898757597773563e-05,0.00045396676263494357,-0.0002687594009060397,163557.828125,101009.5546875,281866.28125,997.8709106445312,45.40848159790039
80297595,0.00520810692488638,0.00532975004219069,9.815038511786106,0.00022335542488952396,6.958449206735881e-05,-0.00020220244766305974,158784.859375,101327.7421875,282466.28125,997.8546752929688,45.40095520019531
80307802,0.00053322522818533,0.010828457336654801,9.818451712164524,0.00011469417112755817,0.00015580856246828975,-0.00026937256040610215,158784.859375,101327.7421875,282466.28125,997.8546752929688,45.40095520019531
80317747,-0.003888314376478519,0.0025383006145860143,9.817573378119114,8.227698598864716e-05,-0.0001071306122494681,-0.0005355465312916769,158784.859375,101327.7421875,282466.28125,997.8546752929688,45.40095520019531
80327756,0.0014279505509087187,0.004252470593681473,9.809551069769505,0.00022781721672152398,-0.00025576725043634013,-0.0003208434412684276,158784.859375,101327.7421875,282466.28125,997.8546752929688,45.40095520019531
80337546,-5.1496337061252007e-05,0.0038508097937013097,9.81334955457175,0.00040176338988465486,6.762374518161582e-05,-0.000297347569694741,158784.859375,101327.7421875,282466.28125,997.8546752929688,45.40095520019531
80347529,0.0014904832738587004,-0.0010404814670179896,9.820853064093235,0.0001713558438431215,0.0006308041685233073,-9.576630543079069e-05,158784.859375,101327.7421875,282466.28125,997.8546752929688,45.40095520019531
80357746,0.0008849969404884916,-0.0020792488644217066,9.831703970465306,0.00016656119150218783,0.0006803419729666965,-6.452374361315584e-05,158784.859375,101327.7421875,282466.28125,997.8546752929688,45.40095520019531
80367744,-0.00628919691861185,-0.0001691956708525233,9.823212454352024,-0.00010359189146321971,0.0004242232590886013,-0.00045908651952259084,158784.859375,101327.7421875,282466.28125,997.8546752929688,45.40095520019531
80377813,0.0012253171104141813,0.0054373513271714635,9.822296927008274,0.0002286078950354573,-5.040908817183801e-06,-0.0004368427238389834,158784.859375,101327.7421875,282466.28125,997.8546752929688,45.40095520019531
80387575,0.002784179736966763,0.004670552473297257,9.822115728888157,0.00031555458444279847,-1.3332299076002665e-05,-0.00035035318284854135,158784.859375,101327.7421875,282466.28125,997.8546752929688,45.40095520019531
80397576,0.006296077956552182,-0.006311551172504287,9.8160379624697,-0.00017652384231689157,0.00012746776896251308,-0.0006210429331716134,154966.484375,86902.7578125,289816.25,997.8271484375,45.40364074707031
80407809,0.004897104789609585,-0.007884189922580581,9.819972822699192,-0.00033302695483791413,0.0001673782045517763,0.0001820902340384216,154966.484375,86902.7578125,289816.25,997.8271484375,45.40364074707031
80417721,0.000893766273851071,-0.007798359234104019,9.81501085523093,-1.0662689607779083e-05,0.00037984409404175296,0.00061868833438866,154966.484375,86902.7578125,289816.25,997.8271484375,45.40364074707031
80427841,0.00015232174574819624,-0.008629784424075942,9.81494982007468,5.492522898639965e-06,-0.00030759081151614026,0.0007527299836780892,154966.484375,86902.7578125,289816.25,997.8271484375,45.40364074707031
80437530,-7.607580245050372e-05,-0.002058200974235397,9.810417959723118,-0.00027019003865199866,-0.0004146345253130241,0.00011254786807485083,154966.484375,86902.7578125,289816.25,997.8271484375,45.40364074707031
80447577,0.005655961324567471,0.0006162594368363805,9.80642111066306,-0.0002058575493784878,-1.3568127414193579e-05,-0.00016753883971460005,154966.484375,86902.7578125,289816.25,997.8271484375,45.40364074707031
80457799,0.003490695943231259,0.0008329893758202978,9.803014586004856,0.00019953887275994984,0.0002104958022218378,0.0001058823633044974,154966.484375,86902.7578125,289816.25,997.8271484375,45.40364074707031
80467731,-3.550739110025347e-05,0.004262648086776871,9.808007071051243,0.0005371845898415636,0.00022075420396590548,-3.2099959180688766e-05,154966.484375,86902.7578125,289816.25,997.8271484375,45.40364074707031
80477812,0.012267479886407529,0.0011041234543229528,9.810624907049778,0.0002451336611492303,0.0003341415632721217,0.00012256635239254842,154966.484375,86902.7578125,289816.25,997.8271484375,45.40364074707031
80487613,0.012042047669286404,0.001761108200779099,9.819769690069798,0.00024972362625056175,0.0007931325873332278,0.00016148900033813128,154966.484375,86902.7578125,289816.25,997.8271484375,45.40364074707031
80497594,0.005438329865331326,0.007320813398590226,9.819825956854466,-0.0001517350912828255,0.0006456025349879818,0.00017250919484440396,158997.015625,103024.8046875,289816.28125,997.8387451171875,45.40525436401367
80507806,-0.0014821866256049532,0.005210063915481705,9.818195173773411,-0.00019789465405403408,0.00029301814187506154,-2.300132325244909e-05,158997.015625,103024.8046875,289816.28125,997.8387451171875,45.40525436401367
80517758,-7.372886956247271e-05,0.004663310508957047,9.81148702863181,-8.19528879284184e-05,-0.00015455769049281312,1.2319788429247404e-05,158997.015625,103024.8046875,289816.28125,997.8387451171875,45.40525436401367
80527810,0.006393963684434567,0.0027988623192216344,9.804172346624973,-0.00018581285367610636,-0.000307052856313978,0.00018911472000554362,158997.015625,103024.8046875,289816.28125,997.8387451171875,45.40525436401367
80537547,-0.00011584700167688311,-0.0010723550508116297,9.80829698804343,-0.00042117550147588136,-0.00024143017968440486,0.0001314969355277733,158997.015625,103024.8046875,289816.28125,997.8387451171875,45.40525436401367
80547573,0.007730813910360013,0.0025061737110520788,9.81286127332175,-4.263171395643387e-05,-0.00028990813903788165,-6.600557969277566e-05,158997.015625,103024.8046875,289816.28125,997.8387451171875,45.40525436401367
80557829,0.005731197287435208,0.0010046880056764074,9.80684835675681,-3.390845559544634e-05,-0.00016146394214870466,7.084610627289088e-05,158997.015625,103024.8046875,289816.28125,997.8387451171875,45.40525436401367
80567721,7.829277693716108e-05,-0.0019968305418585353,9.801210234198216,-0.00014409581600113543,-3.3905680410545894e-05,0.0007267010893244313,158997.015625,103024.8046875,289816.28125,997.8387451171875,45.40525436401367
80577760,-6.607712328943194e-05,-0.0033250082919691615,9.81070120099509,-0.00026244978763053896,0.0001568928947935527,0.0005810244271103309,158997.015625,103024.8046875,289816.28125,997.8387451171875,45.40525436401367
80587545,-0.00680220664561304,-0.0057142753789518885,9.818308661017063,-0.0005353813769098628,0.0006056561598060833,0.00020704927158449003,158997.015625,103024.8046875,289816.28125,997.8387451171875,45.40525436401367
80597578,-0.0010363215309432405,-0.0037088324020002894,9.820489714178684,-0.0007002777430963028,0.0007380612716050999,0.00024329132577777067,159739.46875,97191.1640625,283666.25,997.8873901367188,45.401493072509766
80607824,0.0027045106786438566,0.00147227899335875,9.823684523138645,-0.0006579562334146608,0.00046321601816175445,0.00028270527548529366,159739.46875,97191.1640625,283666.25,997.8873901367188,45.401493072509766
80617760,0.0009533932703682524,0.003725073795547623,9.814306089911106,-0.0007146238942433406,-3.611755697334243e-05,-0.00041190062472224077,159739.46875,97191.1640625,283666.25,997.8873901367188,45.401493072509766
80627799,0.0017288347977348906,0.005344025354614396,9.81246359113181,-0.0007743815087516118,-0.00019165864237861765,-0.0006332088581714763,159739.46875,97191.1640625,283666.25,997.8873901367188,45.401493072509766
80637589,0.0015062859553047758,-0.0039274398872946314,9.810216734442356,-0.00012192854883971397,3.432525240072923e-05,-0.00016659753452613792,159739.46875,97191.1640625,283666.25,997.8873901367188,45.401493072509766
80647525,0.0002394562858292204,-0.012236915964851242,9.80917532208884,-0.00011026431566926423,-0.00021895771520489884,-6.067936165256702e-06,159739.46875,97191.1640625,283666.25,997.8873901367188,45.401493072509766
80657782,0.0008967837589928251,-0.003376409847507339,9.807607481512669,0.0001347622590336692,-0.00033072195388654307,-6.896468982659122e-05,159739.46875,97191.1640625,283666.25,997.8873901367188,45.401493072509766
80667763,-0.0037921124798110384,-0.004638329584369522,9.814360449347141,-7.292330083793733e-05,0.00010769524864458422,-9.144495413265964e-05,159739.46875,97191.1640625,283666.25,997.8873901367188,45.401493072509766
80677757,-0.009946470866804447,-0.003759250480899673,9.82137186292136,0.00042689917499308703,0.00021210827084446268,-6.294109186483389e-05,159739.46875,97191.1640625,283666.25,997.8873901367188,45.401493072509766
80687614,-0.014232551465635623,0.0023055146744157262,9.822209188971165,0.00041525292798985956,-0.00016410034173445834,0.00031043726778961876,159739.46875,97191.1640625,283666.25,997.8873901367188,45.401493072509766
80697545,-0.004610864232187595,0.005408621888389725,9.81714708569968,-0.0001269760407077405,-2.1813082511518725e-05,0.00023651121012307862,158466.671875,95918.3828125,289666.25,997.8455810546875,45.40794372558594
80707792,0.005070628811711941,0.0024351696779633947,9.818395445379856,-0.0004093504696421582,0.0003495312177082704,-0.00016250071927998057,158466.671875,95918.3828125,289666.25,997.8455810546875,45.40794372558594
80717725,-0.0007455924254706758,0.005670509796371598,9.816368887457493,0.0001933398732879874,0.000240387007707748,0.00010523195090145031,158466.671875,95918.3828125,289666.25,997.8455810546875,45.40794372558594
80727762,-0.0071780809861472505,0.004713914852371354,9.808001349005345,0.00012259658141636518,-0.00016056632180975808,0.00032870585858263234,158466.671875,95918.3828125,289666.25,997.8455810546875,45.40794372558594
80737535,-0.0033891329270652193,-0.00839407785631166,9.79991132977927,6.918918260715198e-05,-0.00027495837444717125,-5.767602703627041e-05,158466.671875,95918.3828125,289666.25,997.8455810546875,45.40794372558594
80747608,0.004323186566228543,-0.012716442782649856,9.804845640692356,6.87875715747219e-05,-6.781352008970512e-05,-0.0002971284760590627,158466.671875,95918.3828125,289666.25,997.8455810546875,45.40794372558594
80757812,1.969029302273384e-06,-0.0009776209185217433,9.81052095654929,0.00036022235762437103,9.525269173623005e-05,0.0002278019616184772,158466.671875,95918.3828125,289666.25,997.8455810546875,45.40794372558594
80767735,-0.0013431811434081453,-0.0011111353228186183,9.811050245794895,0.00041756717727628765,0.00046351334289370045,0.0004963828629385696,158466.671875,95918.3828125,289666.25,997.8455810546875,45.40794372558594
80777848,-0.006846537600164737,0.0021719555666352697,9.815213034186009,0.00039647280827273843,0.0008901935708681302,0.0004607697570733742,158466.671875,95918.3828125,289666.25,997.8455810546875,45.40794372558594
80787487,-0.002281231592302646,0.0011629457881356664,9.821078131231907,0.00019011605654021022,0.00033280869514869466,-1.768857179768225e-05,158466.671875,95918.3828125,289666.25,997.8455810546875,45.40794372558594
80797550,-0.002597568343286838,-0.001215041119823318,9.817174742254856,-0.0002613366243232298,0.00024282446078445705,-0.00027032533250376424,158254.515625,95706.234375,284866.28125,997.8485717773438,45.40848159790039
80807756,0.0006492680209824186,0.002632714371910233,9.810864279303196,-0.000503163203763615,0.00026263301528247013,6.862193697970519e-05,158254.515625,95706.234375,284866.28125,997.8485717773438,45.40848159790039
80817733,0.0014296120303818327,0.009997598390808243,9.801173994574192,-0.00022315519273171904,0.00013268583019539424,0.00019437360754609266,158254.515625,95706.234375,284866.28125,997.8485717773438,45.40848159790039
80827764,-0.005456490228777255,0.008425794105758805,9.809523413214329,-0.0004544143168524164,0.0004008344896109955,8.337557692082322e-06,158254.515625,95706.234375,284866.28125,997.8485717773438,45.40848159790039
80837572,-0.0031034925681403536,-0.0005528037140463404,9.818196127447727,-0.0002659308094799775,0.0004373442553887324,-5.79984392700701e-05,158254.515625,95706.234375,284866.28125,997.8485717773438,45.40848159790039
80847581,0.0022723621028610808,0.0044584493448640294,9.818292448553684,5.4614639150605017e-05,-2.0230168828722664e-05,-0.00011258117444440564,158254.515625,95706.234375,284866.28125,997.8485717773438,45.40848159790039
80857753,-0.0011576169830611605,0.0034557502081300207,9.818731138739231,0.000217316525588904,-0.000320930988763441,-1.7956548954591432e-05,158254.515625,95706.234375,284866.28125,997.8485717773438,45.40848159790039
80867801,-0.004461278925543155,0.00811273561023726,9.820200750860813,2.603878673915513e-05,-0.00036605476076060966,8.668125667981962e-05,158254.515625,95706.234375,284866.28125,997.8485717773438,45.40848159790039
80877795,-0.011977894018297519,0.008139349084129471,9.817742178473118,-0.0001616468809580687,-0.00025883587100820676,-0.0001984192843977346,158254.515625,95706.234375,284866.28125,997.8485717773438,45.40848159790039
80887516,-0.006663268218641605,0.00618850396179213,9.812748739752415,-0.00015182241732611092,0.00030277864983959063,-0.0005244495899844898,158254.515625,95706.234375,284866.28125,997.8485717773438,45.40848159790039
80897599,0.0029521679776856047,0.00033038065933241323,9.806644270453098,-0.0002099765562953684,0.0004109623606754647,-0.00022879064487851998,158148.46875,98570.0234375,286066.25,997.8504638671875,45.40848159790039
80907836,-0.0025572979551604647,-0.0011896495411490016,9.814072439703587,-0.0003379404672224331,0.0004293523435453133,-0.00014420877266302547,158148.46875,98570.0234375,286066.25,997.8504638671875,45.40848159790039
80917742,-0.0034946256977370638,0.003513998847236771,9.809006521734837,-0.000541295333466332,0.0003936901395181374,-0.00030032110805250546,158148.46875,98570.0234375,286066.25,997.8504638671875,45.40848159790039
80927751,-0.0023439654809287447,0.006582088332405228,9.808921644720677,-0.0004751299286064017,0.00021917146490609216,0.00021650584824755946,158148.46875,98570.0234375,286066.25,997.8504638671875,45.40848159790039
80937557,-0.004997288594847049,0.002074025135269303,9.817337820562962,-0.00015247435768025699,-1.3385821020212599e-05,0.0008926208626050518,158148.46875,98570.0234375,286066.25,997.8504638671875,45.40848159790039
80947538,-0.004525718997125949,0.007225535373916764,9.823745558294895,-4.407509296208393e-05,0.00026673504011427924,0.0007152589183803664,158148.46875,98570.0234375,286066.25,997.8504638671875,45.40848159790039
80957795,-0.001769570420389499,0.006596482854118485,9.821843931707981,0.00019225265604553042,0.0002736724328687595,0.0006172590452749298,158148.46875,98570.0234375,286066.25,997.8504638671875,45.40848159790039
80967782,-0.0015237310630134004,0.001669466059436936,9.812990973028782,2.73507946921023e-05,-0.0003526567542021914,0.00014483370035095299,158148.46875,98570.0234375,286066.25,997.8504638671875,45.40848159790039
80977753,-0.006366116712694492,0.006688527326812882,9.809144804510716,-0.00013850901560283037,-0.0003983736331602378,0.00016530972209666083,158148.46875,98570.0234375,286066.25,997.8504638671875,45.40848159790039
80987607,-0.008445134173040714,-0.003064364630946975,9.815110991034153,-0.0004746053320624191,-0.00036395165976414517,0.00018208569384087035,158148.46875,98570.0234375,286066.25,997.8504638671875,45.40848159790039
80997564,-0.0014096701246550936,-0.007454120058784347,9.824066946539524,-0.00046144164044300797,-0.00039522413304353193,8.661013419414097e-05,161860.78125,102918.7265625,285916.25,997.8494873046875,45.40901565551758
81007806,-0.001542655537729587,-0.006211549479732376,9.820916006598118,-0.00041564321255202176,-0.0001847209876896633,-9.729235750483191e-05,161860.78125,102918.7265625,285916.25,997.8494873046875,45.40901565551758
81017779,0.001796292354459439,0.0005471702029611059,9.814964125189427,-0.00011205897427054826,-0.00014172188262732757,-0.00028933281134441337,161860.78125,102918.7265625,285916.25,997.8494873046875,45.40901565551758
81027766,0.0030686801570602995,0.003658689122429032,9.819626638922337,0.0002597691189229232,-0.0002808093212107016,-6.247059934167033e-05,161860.78125,102918.7265625,285916.25,997.8494873046875,45.40901565551758
81037515,-0.0008700022202781099,-0.0005263839552496485,9.81504041913474,0.0004600134841829282,-0.00022488861019069386,2.2248125223720984e-05,161860.78125,102918.7265625,285916.25,997.8494873046875,45.40901565551758
81047573,-0.003681836436395969,-0.0047582541296576075,9.811315367254856,-1.4939659383453016e-05,0.00017139332170786279,-0.0003328803489878758,161860.78125,102918.7265625,285916.25,997.8494873046875,45.40901565551758
81057818,-0.006294628391867008,-0.0015642572829817347,9.81566126111472,-0.0005024738504354168,0.0001548919245951291,-0.0008133074937816693,161860.78125,102918.7265625,285916.25,997.8494873046875,45.40901565551758
81067741,-0.008218897293215122,0.0031060944607163854,9.81350881818259,0.00017862160056472985,-0.00048668786790499524,-0.0006478385970424844,161860.78125,102918.7265625,285916.25,997.8494873046875,45.40901565551758
81077800,-0.008078297386770572,0.002833343606224198,9.8147533631655,0.0004497415200538677,-0.0003759076297310932,-0.0003961591195277854,161860.78125,102918.7265625,285916.25,997.8494873046875,45.40901565551758
81087549,-0.003545751581793155,-0.0024783615658377223,9.810310194525364,0.00041989743366946695,-0.0002475418094573362,-0.0001691225683046489,161860.78125,102918.7265625,285916.25,997.8494873046875,45.40901565551758
81097532,-0.009282065342073764,-0.00016406222082124278,9.81651289227927,-3.552728704300482e-05,-0.00045509758079702095,0.0003912873595524595,157406.015625,95281.984375,288166.28125,997.8359375,45.416542053222656
81107757,-0.004835923920278873,0.001263051789035935,9.810733625921848,2.1660132727338878e-05,-0.0005664984290515824,0.0005838851590212451,157406.015625,95281.984375,288166.28125,997.8359375,45.416542053222656
81117825,0.00011324345051733076,0.0011842768003846593,9.81251127484763,5.83834142097481e-05,-0.00042625615047568515,0.0005935480381865071,157406.015625,95281.984375,288166.28125,997.8359375,45.416542053222656
81127752,-0.0018464082580855745,0.0029883454849626012,9.80947286847556,0.00035188603105132697,-0.0003036310607595189,0.0001249986904710547,157406.015625,95281.984375,288166.28125,997.8359375,45.416542053222656
81137537,0.001122066964502011,0.009365178208580155,9.807237455877903,0.00046657389502150235,-2.501594450136704e-05,0.0003003640537187473,157406.015625,95281.984375,288166.28125,997.8359375,45.416542053222656
81147617,0.004069807221288357,0.011937267642250199,9.8064583039614,0.0006761158572707068,-0.0005127279963372095,0.0001835105446204559,157406.015625,95281.984375,288166.28125,997.8359375,45.416542053222656
81157808,0.002350190867776547,0.006233728986015458,9.812133619818333,-0.00010483971819405217,-0.0007456669062403782,0.00047476744805835346,157406.015625,95281.984375,288166.28125,997.8359375,45.416542053222656
81167760,-0.0037637481194785494,0.0031804214527512975,9.814913580450657,-0.00038644528941142144,-0.00040860816976333097,0.00034502309575118283,157406.015625,95281.984375,288166.28125,997.8359375,45.416542053222656
81177817,-0.004556854973440494,0.005455024104347367,9.815178701910618,-0.0003139043121401477,-7.629203342644555e-05,0.00010366632489394555,157406.015625,95281.984375,288166.28125,997.8359375,45.416542053222656
81187590,0.0011943226951309782,0.001892566244831223,9.813781569037083,0.000388206359996621,-0.0002447510722586705,-7.845205834228387e-05,157406.015625,95281.984375,288166.28125,997.8359375,45.416542053222656
81197609,0.0019331967729279143,0.0018877457191850133,9.8227518296572,0.0006310861197497439,-0.00019241519645134044,-0.00028719487306289217,158890.921875,95281.9765625,283066.28125,997.8787231445312,45.416542053222656
81207802,-0.006707547019129123,-0.0013105501124952845,9.826177427801731,0.0003501150629680347,-0.00022141780378574563,-0.00040976667366549214,158890.921875,95281.9765625,283066.28125,997.8787231445312,45.416542053222656
81217746,-0.008919602046614017,-0.0017148111651037745,9.81601125958884,5.813319766537514e-05,0.00045905047421997353,-0.0007252408162187769,158890.921875,95281.9765625,283066.28125,997.8787231445312,45.416542053222656
81227742,-0.007381198714380588,3.108338617338613e-05,9.816863844427708,3.9805108179332973e-07,0.00031933500407917365,-0.00034058704329281887,158890.921875,95281.9765625,283066.28125,997.8787231445312,45.416542053222656
81237525,0.0004961511391350371,-0.005725466151008468,9.809987852606419,-0.00014897681940703424,0.00018969865244884918,-0.0001223671628124996,158890.921875,95281.9765625,283066.28125,997.8787231445312,45.416542053222656
81247563,0.008491495837564145,-0.008465417165527206,9.81385118726218,0.00020033132640754101,0.00038071540451796665,0.00021310890736431042,158890.921875,95281.9765625,283066.28125,997.8787231445312,45.416542053222656
81257763,0.011519225527639065,-0.002308004040489059,9.803982565436009,2.585482870279573e-05,0.000245655324889365,0.0007154652645383047,158890.921875,95281.9765625,283066.28125,997.8787231445312,45.416542053222656
81267704,0.006635742475385342,0.003443590860595841,9.813497374090794,-8.170989277197752e-05,9.428336980770699e-06,0.00040200077058188775,158890.921875,95281.9765625,283066.28125,997.8787231445312,45.416542053222656
