Timestamp,Accelerometer_X,Accelerometer_Y,Accelerometer_Z,Gyroscope_X,Gyroscope_Y,Gyroscope_Z,Magnetometer_X,Magnetometer_Y,Magnetometer_Z,Abs_Pressure,Temperature
5264974,-0.006498249124562289,0.0015157578789394693,-9.821194457228614,2.5012506253126565e-05,-0.00013506753376688345,-6.003001500750375e-05,0,0,0,43.75
5264977,-0.006498249124562289,0.0015157578789394693,-9.821194457228614,2.5012506253126565e-05,-0.00013506753376688345,-6.003001500750375e-05,0,0,0,43.56
5264984,-0.006498249124562289,0.0015157578789394693,-9.811194457228614,2.5012506253126565e-05,-0.00013506753376688345,-6.003001500750375e-05,0,0,0,43.81
5264987,-0.006498249124562289,0.0015157578789394693,-9.811194457228614,2.5012506253126565e-05,-0.00013506753376688345,-6.003001500750375e-05,0,0,0,43.75
5264992,0.0035017508754377064,0.0015157578789394693,-9.811194457228614,2.5012506253126565e-05,-0.00013506753376688345,-6.003001500750375e-05,0,0,0,43.75
5264999,0.0035017508754377064,0.0015157578789394693,-9.801194457228615,2.5012506253126565e-05,-0.00013506753376688345,-6.003001500750375e-05,0,0,0,43.81
5265002,0.0035017508754377064,0.0015157578789394693,-9.801194457228615,2.5012506253126565e-05,-0.00013506753376688345,-6.003001500750375e-05,0,0,0,43.56
5265009,0.0035017508754377064,0.0015157578789394693,-9.801194457228615,2.5012506253126565e-05,-0.00013506753376688345,-6.003001500750375e-05,0,0,0,43.87
5265012,0.0035017508754377064,0.0015157578789394693,-9.801194457228615,2.5012506253126565e-05,-0.00013506753376688345,-6.003001500750375e-05,0,0,0,43.75
5265017,0.0035017508754377064,0.0015157578789394693,-9.811194457228614,2.5012506253126565e-05,-0.00013506753376688345,-6.003001500750375e-05,0,0,0,43.68
5265024,0.0035017508754377064,0.0015157578789394693,-9.811194457228614,2.5012506253126565e-05,-0.00013506753376688345,-6.003001500750375e-05,0,0,0,43.81
5265027,0.0035017508754377064,0.0015157578789394693,-9.811194457228614,2.5012506253126565e-05,-0.00013506753376688345,-6.003001500750375e-05,0,0,0,43.75
5265034,0.0035017508754377064,0.011515757878939468,-9.811194457228614,2.5012506253126565e-05,-0.00013506753376688345,-6.003001500750375e-05,0,0,0,43.43
5265037,0.0035017508754377064,0.011515757878939468,-9.801194457228615,2.5012506253126565e-05,-0.00013506753376688345,-6.003001500750375e-05,0,0,0,43.81
5265042,0.0035017508754377064,0.011515757878939468,-9.801194457228615,2.5012506253126565e-05,-0.00013506753376688345,-6.003001500750375e-05,0,0,0,43.62
5265049,0.0035017508754377064,0.011515757878939468,-9.811194457228614,2.5012506253126565e-05,-0.00013506753376688345,-6.003001500750375e-05,0,0,0,43.87
5265052,0.0035017508754377064,0.011515757878939468,-9.811194457228614,2.5012506253126565e-05,-0.00013506753376688345,-6.003001500750375e-05,0,0,0,43.87
5265059,0.0035017508754377064,0.0015157578789394693,-9.821194457228614,2.5012506253126565e-05,-0.00013506753376688345,-6.003001500750375e-05,0,0,0,43.81
5265062,0.0035017508754377064,0.0015157578789394693,-9.821194457228614,2.5012506253126565e-05,-0.00013506753376688345,-6.003001500750375e-05,0,0,0,43.68
5265067,0.0035017508754377064,0.0015157578789394693,-9.821194457228614,2.5012506253126565e-05,-0.00013506753376688345,-6.003001500750375e-05,0,0,0,43.56
5265074,0.0035017508754377064,0.0015157578789394693,-9.821194457228614,2.5012506253126565e-05,-0.00013506753376688345,-6.003001500750375e-05,0,0,0,43.5
5265077,0.0035017508754377064,0.0015157578789394693,-9.821194457228614,2.5012506253126565e-05,-0.00013506753376688345,-6.003001500750375e-05,0,0,0,43.5
5265084,0.0035017508754377064,0.011515757878939468,-9.821194457228614,2.5012506253126565e-05,-0.00013506753376688345,-6.003001500750375e-05,0,0,0,43.75
5265087,0.0035017508754377064,0.011515757878939468,-9.821194457228614,2.5012506253126565e-05,-0.00013506753376688345,-6.003001500750375e-05,0,0,0,43.81
5265092,0.0035017508754377064,0.0015157578789394693,-9.821194457228614,2.5012506253126565e-05,-0.00013506753376688345,-6.003001500750375e-05,0,0,0,43.81
5265099,0.0035017508754377064,0.0015157578789394693,-9.821194457228614,2.5012506253126565e-05,-0.00013506753376688345,-6.003001500750375e-05,0,0,0,43.81
5265102,0.0035017508754377064,0.0015157578789394693,-9.811194457228614,2.5012506253126565e-05,-0.00013506753376688345,-6.003001500750375e-05,0,0,0,43.75
5265109,0.0035017508754377064,0.0015157578789394693,-9.811194457228614,2.5012506253126565e-05,-0.00013506753376688345,-6.003001500750375e-05,0,0,0,43.56
5265112,0.0035017508754377064,0.0015157578789394693,-9.811194457228614,2.5012506253126565e-05,-0.00013506753376688345,-6.003001500750375e-05,0,0,0,43.68
5265117,-0.006498249124562289,0.0015157578789394693,-9.811194457228614,2.5012506253126565e-05,-0.00013506753376688345,-6.003001500750375e-05,0,0,0,43.56
5265124,-0.006498249124562289,0.0015157578789394693,-9.821194457228614,2.5012506253126565e-05,-0.00013506753376688345,-6.003001500750375e-05,0,0,0,43.75
5265127,-0.006498249124562289,0.0015157578789394693,-9.821194457228614,2.5012506253126565e-05,-0.00013506753376688345,-6.003001500750375e-05,0,0,0,43.68
5265134,-0.006498249124562289,0.0015157578789394693,-9.811194457228614,2.5012506253126565e-05,-0.00013506753376688345,-6.003001500750375e-05,0,0,0,43.56
5265137,-0.006498249124562289,0.0015157578789394693,-9.811194457228614,2.5012506253126565e-05,-0.00013506753376688345,-6.003001500750375e-05,0,0,0,43.75
5265142,-0.006498249124562289,0.0015157578789394693,-9.811194457228614,2.5012506253126565e-05,-0.00013506753376688345,-6.003001500750375e-05,0,0,0,43.62
5265149,0.0035017508754377064,-0.008484242121060531,-9.821194457228614,2.5012506253126565e-05,-0.00013506753376688345,-6.003001500750375e-05,0,0,0,43.75
5265152,0.0035017508754377064,0.0015157578789394693,-9.821194457228614,2.5012506253126565e-05,-0.00013506753376688345,-6.003001500750375e-05,0,0,0,43.62
5265159,0.0035017508754377064,0.0015157578789394693,-9.821194457228614,2.5012506253126565e-05,-0.00013506753376688345,-6.003001500750375e-05,0,0,0,43.87
5265162,0.0035017508754377064,0.0015157578789394693,-9.821194457228614,2.5012506253126565e-05,-0.00013506753376688345,-6.003001500750375e-05,0,0,0,43.87
5265167,0.0035017508754377064,0.0015157578789394693,-9.821194457228614,2.5012506253126565e-05,-0.00013506753376688345,-6.003001500750375e-05,0,0,0,43.87
5265174,-0.006498249124562289,0.0015157578789394693,-9.831194457228614,2.5012506253126565e-05,-0.00013506753376688345,-6.003001500750375e-05,0,0,0,43.75
5265177,-0.006498249124562289,0.0015157578789394693,-9.831194457228614,2.5012506253126565e-05,-0.00013506753376688345,-6.003001500750375e-05,0,0,0,43.81
5265184,-0.006498249124562289,0.0015157578789394693,-9.831194457228614,2.5012506253126565e-05,-0.00013506753376688345,-6.003001500750375e-05,0,0,0,43.93
5265187,-0.006498249124562289,0.0015157578789394693,-9.821194457228614,2.5012506253126565e-05,-0.00013506753376688345,-6.003001500750375e-05,0,0,0,43.62
5265192,-0.006498249124562289,-0.008484242121060531,-9.821194457228614,2.5012506253126565e-05,-0.00013506753376688345,-6.003001500750375e-05,0,0,0,43.75
5265199,0.0035017508754377064,-0.01848424212106053,-9.811194457228614,2.5012506253126565e-05,-0.00013506753376688345,-6.003001500750375e-05,0,0,0,43.75
5265202,0.0035017508754377064,-0.01848424212106053,-9.811194457228614,2.5012506253126565e-05,-0.00013506753376688345,-6.003001500750375e-05,0,0,0,43.62
5265209,0.0035017508754377064,-0.008484242121060531,-9.801194457228615,2.5012506253126565e-05,-0.00013506753376688345,-6.003001500750375e-05,0,0,0,43.62
5265212,0.0035017508754377064,-0.008484242121060531,-9.811194457228614,2.5012506253126565e-05,-0.00013506753376688345,-6.003001500750375e-05,0,0,0,43.56
5265217,-0.006498249124562289,0.0015157578789394693,-9.811194457228614,2.5012506253126565e-05,-0.00013506753376688345,-6.003001500750375e-05,0,0,0,43.62
5265224,-0.006498249124562289,0.011515757878939468,-9.811194457228614,2.5012506253126565e-05,-0.00013506753376688345,-6.003001500750375e-05,0,0,0,43.68
5265227,-0.006498249124562289,0.011515757878939468,-9.811194457228614,2.5012506253126565e-05,-0.00013506753376688345,-6.003001500750375e-05,0,0,0,43.75
5265234,-0.006498249124562289,0.011515757878939468,-9.811194457228614,2.5012506253126565e-05,-0.00013506753376688345,-6.003001500750375e-05,0,0,0,43.81
5265237,-0.006498249124562289,0.011515757878939468,-9.811194457228614,2.5012506253126565e-05,-0.00013506753376688345,-6.003001500750375e-05,0,0,0,43.56
5265242,-0.006498249124562289,0.0015157578789394693,-9.811194457228614,2.5012506253126565e-05,-0.00013506753376688345,-6.003001500750375e-05,0,0,0,43.62
5265249,-0.006498249124562289,0.0015157578789394693,-9.811194457228614,2.5012506253126565e-05,-0.00013506753376688345,-6.003001500750375e-05,0,0,0,43.75
5265252,-0.006498249124562289,0.0015157578789394693,-9.811194457228614,2.5012506253126565e-05,-0.00013506753376688345,-6.003001500750375e-05,0,0,0,43.62
5265259,0.0035017508754377064,0.0015157578789394693,-9.811194457228614,2.5012506253126565e-05,-0.00013506753376688345,-6.003001500750375e-05,0,0,0,43.62
5265262,0.0035017508754377064,0.0015157578789394693,-9.811194457228614,2.5012506253126565e-05,-0.00013506753376688345,-6.003001500750375e-05,0,0,0,43.93
5265267,-0.006498249124562289,0.0015157578789394693,-9.821194457228614,2.5012506253126565e-05,-0.00013506753376688345,-6.003001500750375e-05,0,0,0,43.87
5265274,-0.006498249124562289,0.0015157578789394693,-9.821194457228614,2.5012506253126565e-05,-0.00013506753376688345,-6.003001500750375e-05,0,0,0,43.81
5265277,0.0035017508754377064,0.0015157578789394693,-9.811194457228614,2.5012506253126565e-05,-0.00013506753376688345,-6.003001500750375e-05,0,0,0,43.81
5265284,-0.006498249124562289,0.0015157578789394693,-9.811194457228614,2.5012506253126565e-05,-0.00013506753376688345,-6.003001500750375e-05,0,0,0,43.81
5265287,0.0035017508754377064,0.0015157578789394693,-9.811194457228614,2.5012506253126565e-05,-0.00013506753376688345,-6.003001500750375e-05,0,0,0,43.75
5265292,0.0035017508754377064,0.0015157578789394693,-9.811194457228614,2.5012506253126565e-05,-0.00013506753376688345,-6.003001500750375e-05,0,0,0,43.62
5265299,0.0035017508754377064,0.0015157578789394693,-9.801194457228615,2.5012506253126565e-05,-0.00013506753376688345,-6.003001500750375e-05,0,0,0,43.81
5265302,0.0035017508754377064,0.0015157578789394693,-9.801194457228615,2.5012506253126565e-05,-0.00013506753376688345,-6.003001500750375e-05,0,0,0,43.62
5265307,0.0035017508754377064,0.0015157578789394693,-9.811194457228614,2.5012506253126565e-05,-0.00013506753376688345,-6.003001500750375e-05,0,0,0,43.62
5265312,0.0035017508754377064,0.0015157578789394693,-9.811194457228614,2.5012506253126565e-05,-0.00013506753376688345,-6.003001500750375e-05,0,0,0,43.56
5265317,0.0035017508754377064,0.0015157578789394693,-9.811194457228614,2.5012506253126565e-05,-0.00013506753376688345,-6.003001500750375e-05,0,0,0,43.81
5265324,-0.006498249124562289,0.0015157578789394693,-9.811194457228614,2.5012506253126565e-05,-0.00013506753376688345,-6.003001500750375e-05,0,0,0,43.75
5265327,-0.006498249124562289,0.0015157578789394693,-9.811194457228614,2.5012506253126565e-05,-0.00013506753376688345,-6.003001500750375e-05,0,0,0,43.75
5265334,-0.006498249124562289,0.0015157578789394693,-9.811194457228614,2.5012506253126565e-05,-0.00013506753376688345,-6.003001500750375e-05,0,0,0,43.68
5265337,-0.006498249124562289,0.0015157578789394693,-9.811194457228614,2.5012506253126565e-05,-0.00013506753376688345,-6.003001500750375e-05,0,0,0,43.62
5265342,-0.006498249124562289,-0.008484242121060531,-9.811194457228614,2.5012506253126565e-05,-0.00013506753376688345,-6.003001500750375e-05,0,0,0,43.56
5265349,0.0035017508754377064,0.0015157578789394693,-9.811194457228614,2.5012506253126565e-05,-0.00013506753376688345,-6.003001500750375e-05,0,0,0,43.68
5265352,0.0035017508754377064,0.0015157578789394693,-9.811194457228614,2.5012506253126565e-05,-0.00013506753376688345,-6.003001500750375e-05,0,0,0,43.81
5265359,-0.006498249124562289,0.0015157578789394693,-9.811194457228614,2.5012506253126565e-05,-0.00013506753376688345,-6.003001500750375e-05,0,0,0,43.75
5265362,-0.006498249124562289,0.0015157578789394693,-9.811194457228614,2.5012506253126565e-05,-0.00013506753376688345,-6.003001500750375e-05,0,0,0,43.62
5265367,-0.006498249124562289,0.0015157578789394693,-9.811194457228614,2.5012506253126565e-05,-0.00013506753376688345,-6.003001500750375e-05,0,0,0,43.75
5265379,-0.006498249124562289,-0.008484242121060531,-9.821194457228614,2.5012506253126565e-05,-0.00013506753376688345,-6.003001500750375e-05,0,0,0,43.75
5265384,-0.006498249124562289,0.0015157578789394693,-9.821194457228614,2.5012506253126565e-05,-0.00013506753376688345,-6.003001500750375e-05,0,0,0,43.81
5265389,-0.006498249124562289,0.0015157578789394693,-9.821194457228614,2.5012506253126565e-05,-0.00013506753376688345,-6.003001500750375e-05,0,0,0,43.56
5265394,-0.006498249124562289,0.0015157578789394693,-9.821194457228614,2.5012506253126565e-05,-0.00013506753376688345,-6.003001500750375e-05,0,0,0,43.81
5265399,-0.006498249124562289,0.0015157578789394693,-9.821194457228614,2.5012506253126565e-05,-0.00013506753376688345,-6.003001500750375e-05,0,0,0,43.75
5265404,-0.006498249124562289,0.0015157578789394693,-9.811194457228614,2.5012506253126565e-05,-0.00013506753376688345,-6.003001500750375e-05,0,0,0,43.87
5265409,0.0035017508754377064,-0.008484242121060531,-9.811194457228614,2.5012506253126565e-05,-0.00013506753376688345,-6.003001500750375e-05,0,0,0,43.81
5265414,0.0035017508754377064,-0.008484242121060531,-9.811194457228614,2.5012506253126565e-05,-0.00013506753376688345,-6.003001500750375e-05,0,0,0,43.75
5265419,0.0035017508754377064,0.0015157578789394693,-9.811194457228614,2.5012506253126565e-05,-0.00013506753376688345,-6.003001500750375e-05,0,0,0,43.68
5265424,0.0035017508754377064,0.0015157578789394693,-9.821194457228614,2.5012506253126565e-05,-0.00013506753376688345,-6.003001500750375e-05,0,0,0,43.68
5265429,0.0035017508754377064,0.0015157578789394693,-9.821194457228614,2.5012506253126565e-05,-0.00013506753376688345,-6.003001500750375e-05,0,0,0,43.87
5265434,0.0035017508754377064,0.0015157578789394693,-9.811194457228614,2.5012506253126565e-05,-0.00013506753376688345,-6.003001500750375e-05,0,0,0,43.75
5265439,0.0035017508754377064,-0.008484242121060531,-9.811194457228614,2.5012506253126565e-05,-0.00013506753376688345,-6.003001500750375e-05,0,0,0,43.81
5265444,0.0035017508754377064,-0.008484242121060531,-9.821194457228614,2.5012506253126565e-05,-0.00013506753376688345,-6.003001500750375e-05,0,0,0,43.75
5265449,0.0035017508754377064,-0.008484242121060531,-9.821194457228614,2.5012506253126565e-05,-0.00013506753376688345,-6.003001500750375e-05,0,0,0,43.75
5265454,0.0035017508754377064,-0.008484242121060531,-9.821194457228614,2.5012506253126565e-05,-0.00013506753376688345,-6.003001500750375e-05,0,0,0,43.75
5265459,0.0035017508754377064,-0.008484242121060531,-9.811194457228614,2.5012506253126565e-05,-0.00013506753376688345,-6.003001500750375e-05,0,0,0,43.75
5265464,0.0035017508754377064,-0.008484242121060531,-9.811194457228614,2.5012506253126565e-05,-0.00013506753376688345,-6.003001500750375e-05,0,0,0,43.75
5265469,0.0035017508754377064,-0.008484242121060531,-9.801194457228615,2.5012506253126565e-05,-0.00013506753376688345,-6.003001500750375e-05,0,0,0,43.75
5265474,0.013501750875437701,-0.008484242121060531,-9.811194457228614,2.5012506253126565e-05,-0.00013506753376688345,-6.003001500750375e-05,0,0,0,43.75
5265479,0.0035017508754377064,0.0015157578789394693,-9.811194457228614,2.5012506253126565e-05,-0.00013506753376688345,-6.003001500750375e-05,0,0,0,43.75
5265484,0.0035017508754377064,0.0015157578789394693,-9.811194457228614,2.5012506253126565e-05,-0.00013506753376688345,-6.003001500750375e-05,0,0,0,43.87
5265489,0.0035017508754377064,0.0015157578789394693,-9.811194457228614,2.5012506253126565e-05,-0.00013506753376688345,-6.003001500750375e-05,0,0,0,43.75
5265494,0.0035017508754377064,0.0015157578789394693,-9.811194457228614,2.5012506253126565e-05,-0.00013506753376688345,-6.003001500750375e-05,0,0,0,43.75
5265499,0.0035017508754377064,0.0015157578789394693,-9.811194457228614,2.5012506253126565e-05,-0.00013506753376688345,-6.003001500750375e-05,0,0,0,43.75
5265504,0.0035017508754377064,0.0015157578789394693,-9.811194457228614,2.5012506253126565e-05,-0.00013506753376688345,-6.003001500750375e-05,0,0,0,43.68
5265509,0.0035017508754377064,0.0015157578789394693,-9.811194457228614,2.5012506253126565e-05,-0.00013506753376688345,-6.003001500750375e-05,0,0,0,43.56
5265515,0.0035017508754377064,0.0015157578789394693,-9.811194457228614,2.5012506253126565e-05,-0.00013506753376688345,-6.003001500750375e-05,0,0,0,43.81
5265519,-0.006498249124562289,0.0015157578789394693,-9.811194457228614,2.5012506253126565e-05,-0.00013506753376688345,-6.003001500750375e-05,0,0,0,43.62
5265524,0.0035017508754377064,0.0015157578789394693,-9.811194457228614,2.5012506253126565e-05,-0.00013506753376688345,-6.003001500750375e-05,0,0,0,43.81
5265529,0.0035017508754377064,0.0015157578789394693,-9.811194457228614,2.5012506253126565e-05,-0.00013506753376688345,-6.003001500750375e-05,0,0,0,43.75
5265534,0.0035017508754377064,0.0015157578789394693,-9.811194457228614,2.5012506253126565e-05,-0.00013506753376688345,-6.003001500750375e-05,0,0,0,43.37
5265539,0.0035017508754377064,0.0015157578789394693,-9.821194457228614,2.5012506253126565e-05,-0.00013506753376688345,-6.003001500750375e-05,0,0,0,43.62
5265544,0.0035017508754377064,0.0015157578789394693,-9.811194457228614,2.5012506253126565e-05,-0.00013506753376688345,-6.003001500750375e-05,0,0,0,44.0
5265549,0.0035017508754377064,0.0015157578789394693,-9.811194457228614,2.5012506253126565e-05,-0.00013506753376688345,-6.003001500750375e-05,0,0,0,43.75
5265554,0.0035017508754377064,0.0015157578789394693,-9.801194457228615,2.5012506253126565e-05,-0.00013506753376688345,-6.003001500750375e-05,0,0,0,43.87
5265559,-0.006498249124562289,0.0015157578789394693,-9.811194457228614,2.5012506253126565e-05,-0.00013506753376688345,-6.003001500750375e-05,0,0,0,43.87
5265564,-0.006498249124562289,0.0015157578789394693,-9.811194457228614,2.5012506253126565e-05,-0.00013506753376688345,-6.003001500750375e-05,0,0,0,43.56
5265569,-0.006498249124562289,0.0015157578789394693,-9.821194457228614,2.5012506253126565e-05,-0.00013506753376688345,-6.003001500750375e-05,0,0,0,43.81
5265574,-0.006498249124562289,-0.008484242121060531,-9.811194457228614,2.5012506253126565e-05,-0.00013506753376688345,-6.003001500750375e-05,0,0,0,43.75
5265579,-0.006498249124562289,-0.008484242121060531,-9.811194457228614,2.5012506253126565e-05,-0.00013506753376688345,-6.003001500750375e-05,0,0,0,43.68
5265584,0.0035017508754377064,0.0015157578789394693,-9.811194457228614,2.5012506253126565e-05,-0.00013506753376688345,-6.003001500750375e-05,0,0,0,43.75
5265589,0.0035017508754377064,0.0015157578789394693,-9.811194457228614,2.5012506253126565e-05,-0.00013506753376688345,-6.003001500750375e-05,0,0,0,43.62
5265594,0.0035017508754377064,0.0015157578789394693,-9.811194457228614,2.5012506253126565e-05,-0.00013506753376688345,-6.003001500750375e-05,0,0,0,43.75
5265599,0.0035017508754377064,0.0015157578789394693,-9.811194457228614,2.5012506253126565e-05,-0.00013506753376688345,-6.003001500750375e-05,0,0,0,43.68
5265604,0.0035017508754377064,-0.008484242121060531,-9.801194457228615,2.5012506253126565e-05,-0.00013506753376688345,-6.003001500750375e-05,0,0,0,43.81
5265609,-0.006498249124562289,-0.008484242121060531,-9.801194457228615,2.5012506253126565e-05,-0.00013506753376688345,-6.003001500750375e-05,0,0,0,43.62
5265615,-0.006498249124562289,-0.008484242121060531,-9.801194457228615,2.5012506253126565e-05,-0.00013506753376688345,-6.003001500750375e-05,0,0,0,43.75
5265619,-0.006498249124562289,-0.008484242121060531,-9.801194457228615,2.5012506253126565e-05,-0.00013506753376688345,-6.003001500750375e-05,0,0,0,43.68
5265624,-0.006498249124562289,-0.008484242121060531,-9.801194457228615,2.5012506253126565e-05,-0.00013506753376688345,-6.003001500750375e-05,0,0,0,43.62
5265629,-0.006498249124562289,-0.008484242121060531,-9.801194457228615,2.5012506253126565e-05,0.009864932466233116,-6.003001500750375e-05,0,0,0,43.75
5265634,-0.006498249124562289,-0.008484242121060531,-9.811194457228614,2.5012506253126565e-05,0.009864932466233116,-6.003001500750375e-05,0,0,0,43.75
5265639,0.0035017508754377064,-0.008484242121060531,-9.811194457228614,2.5012506253126565e-05,0.009864932466233116,-6.003001500750375e-05,0,0,0,43.68
5265644,0.0035017508754377064,-0.008484242121060531,-9.811194457228614,2.5012506253126565e-05,-0.00013506753376688345,-6.003001500750375e-05,0,0,0,43.87
5265649,-0.006498249124562289,0.0015157578789394693,-9.811194457228614,2.5012506253126565e-05,-0.00013506753376688345,-6.003001500750375e-05,0,0,0,43.75
5265654,-0.006498249124562289,0.0015157578789394693,-9.811194457228614,2.5012506253126565e-05,-0.00013506753376688345,-6.003001500750375e-05,0,0,0,43.75
5265659,-0.006498249124562289,0.0015157578789394693,-9.811194457228614,2.5012506253126565e-05,-0.00013506753376688345,-6.003001500750375e-05,0,0,0,43.75
5265664,-0.006498249124562289,-0.008484242121060531,-9.811194457228614,2.5012506253126565e-05,-0.00013506753376688345,-6.003001500750375e-05,0,0,0,43.75
5265669,-0.006498249124562289,0.0015157578789394693,-9.811194457228614,2.5012506253126565e-05,-0.00013506753376688345,-6.003001500750375e-05,0,0,0,44.12
5265674,-0.006498249124562289,0.0015157578789394693,-9.821194457228614,2.5012506253126565e-05,-0.00013506753376688345,-6.003001500750375e-05,0,0,0,43.68
5265679,-0.006498249124562289,0.0015157578789394693,-9.811194457228614,2.5012506253126565e-05,-0.00013506753376688345,-6.003001500750375e-05,0,0,0,43.75
5265684,0.0035017508754377064,0.0015157578789394693,-9.811194457228614,2.5012506253126565e-05,-0.00013506753376688345,-6.003001500750375e-05,0,0,0,43.75
5265689,0.0035017508754377064,0.0015157578789394693,-9.811194457228614,2.5012506253126565e-05,-0.00013506753376688345,-6.003001500750375e-05,0,0,0,43.56
5265694,0.0035017508754377064,0.0015157578789394693,-9.811194457228614,2.5012506253126565e-05,-0.00013506753376688345,-6.003001500750375e-05,0,0,0,43.81
5265699,0.0035017508754377064,0.0015157578789394693,-9.821194457228614,2.5012506253126565e-05,-0.00013506753376688345,-6.003001500750375e-05,0,0,0,43.93
5265704,0.0035017508754377064,0.0015157578789394693,-9.821194457228614,2.5012506253126565e-05,-0.00013506753376688345,-6.003001500750375e-05,0,0,0,43.56
5265709,0.0035017508754377064,-0.008484242121060531,-9.821194457228614,2.5012506253126565e-05,-0.00013506753376688345,-6.003001500750375e-05,0,0,0,43.75
5265715,0.0035017508754377064,-0.008484242121060531,-9.811194457228614,2.5012506253126565e-05,-0.00013506753376688345,-6.003001500750375e-05,0,0,0,43.56
5265719,0.0035017508754377064,-0.008484242121060531,-9.811194457228614,2.5012506253126565e-05,-0.00013506753376688345,-6.003001500750375e-05,0,0,0,43.68
5265724,0.0035017508754377064,-0.008484242121060531,-9.811194457228614,2.5012506253126565e-05,-0.00013506753376688345,-6.003001500750375e-05,0,0,0,43.56
5265729,0.0035017508754377064,0.0015157578789394693,-9.811194457228614,2.5012506253126565e-05,-0.00013506753376688345,-6.003001500750375e-05,0,0,0,43.81
5265734,0.0035017508754377064,0.0015157578789394693,-9.811194457228614,2.5012506253126565e-05,-0.00013506753376688345,-6.003001500750375e-05,0,0,0,43.68
5265739,0.0035017508754377064,0.0015157578789394693,-9.811194457228614,2.5012506253126565e-05,-0.00013506753376688345,-6.003001500750375e-05,0,0,0,43.75
5265744,0.0035017508754377064,0.0015157578789394693,-9.811194457228614,2.5012506253126565e-05,-0.00013506753376688345,-6.003001500750375e-05,0,0,0,43.87
5265749,0.0035017508754377064,0.0015157578789394693,-9.811194457228614,2.5012506253126565e-05,-0.00013506753376688345,-6.003001500750375e-05,0,0,0,43.56
5265754,0.0035017508754377064,0.0015157578789394693,-9.811194457228614,2.5012506253126565e-05,-0.00013506753376688345,-6.003001500750375e-05,0,0,0,43.75
5265759,0.0035017508754377064,0.011515757878939468,-9.811194457228614,2.5012506253126565e-05,-0.00013506753376688345,-6.003001500750375e-05,0,0,0,43.75
5265764,0.0035017508754377064,0.011515757878939468,-9.821194457228614,2.5012506253126565e-05,-0.00013506753376688345,-6.003001500750375e-05,0,0,0,43.93
5265769,0.0035017508754377064,0.011515757878939468,-9.821194457228614,2.5012506253126565e-05,-0.00013506753376688345,-6.003001500750375e-05,0,0,0,43.75
5265774,0.0035017508754377064,0.011515757878939468,-9.821194457228614,2.5012506253126565e-05,-0.00013506753376688345,-6.003001500750375e-05,0,0,0,43.81
5265779,0.0035017508754377064,0.0015157578789394693,-9.821194457228614,2.5012506253126565e-05,-0.00013506753376688345,-6.003001500750375e-05,0,0,0,43.87
5265784,0.0035017508754377064,0.0015157578789394693,-9.821194457228614,2.5012506253126565e-05,-0.00013506753376688345,-6.003001500750375e-05,0,0,0,43.75
5265789,0.0035017508754377064,-0.008484242121060531,-9.821194457228614,2.5012506253126565e-05,-0.00013506753376688345,-6.003001500750375e-05,0,0,0,43.62
5265794,0.0035017508754377064,-0.008484242121060531,-9.821194457228614,2.5012506253126565e-05,-0.00013506753376688345,-6.003001500750375e-05,0,0,0,43.62
5265799,0.0035017508754377064,-0.008484242121060531,-9.821194457228614,2.5012506253126565e-05,-0.00013506753376688345,-6.003001500750375e-05,0,0,0,43.75
5265804,0.0035017508754377064,-0.008484242121060531,-9.811194457228614,2.5012506253126565e-05,-0.00013506753376688345,-6.003001500750375e-05,0,0,0,43.75
5265809,0.0035017508754377064,0.0015157578789394693,-9.811194457228614,2.5012506253126565e-05,-0.00013506753376688345,-6.003001500750375e-05,0,0,0,43.68
5265815,0.0035017508754377064,0.0015157578789394693,-9.821194457228614,2.5012506253126565e-05,-0.00013506753376688345,-6.003001500750375e-05,0,0,0,43.93
5265819,-0.006498249124562289,0.0015157578789394693,-9.811194457228614,2.5012506253126565e-05,-0.00013506753376688345,-6.003001500750375e-05,0,0,0,43.81
5265824,0.0035017508754377064,-0.008484242121060531,-9.811194457228614,2.5012506253126565e-05,-0.00013506753376688345,-6.003001500750375e-05,0,0,0,43.62
5265829,0.0035017508754377064,0.0015157578789394693,-9.811194457228614,2.5012506253126565e-05,-0.00013506753376688345,-6.003001500750375e-05,0,0,0,43.75
5265834,0.0035017508754377064,0.0015157578789394693,-9.801194457228615,2.5012506253126565e-05,-0.00013506753376688345,-6.003001500750375e-05,0,0,0,43.75
5265839,0.0035017508754377064,0.0015157578789394693,-9.811194457228614,2.5012506253126565e-05,-0.00013506753376688345,-6.003001500750375e-05,0,0,0,43.75
5265844,0.0035017508754377064,0.0015157578789394693,-9.811194457228614,2.5012506253126565e-05,-0.00013506753376688345,-6.003001500750375e-05,0,0,0,43.68
5265849,0.0035017508754377064,0.011515757878939468,-9.821194457228614,2.5012506253126565e-05,-0.00013506753376688345,-6.003001500750375e-05,0,0,0,43.62
5265854,0.0035017508754377064,0.011515757878939468,-9.821194457228614,2.5012506253126565e-05,-0.00013506753376688345,-6.003001500750375e-05,0,0,0,43.68
5265859,0.0035017508754377064,0.0015157578789394693,-9.821194457228614,2.5012506253126565e-05,-0.00013506753376688345,-6.003001500750375e-05,0,0,0,43.75
5265864,0.0035017508754377064,0.0015157578789394693,-9.821194457228614,2.5012506253126565e-05,-0.00013506753376688345,-6.003001500750375e-05,0,0,0,43.68
5265869,0.0035017508754377064,-0.008484242121060531,-9.821194457228614,2.5012506253126565e-05,-0.00013506753376688345,-6.003001500750375e-05,0,0,0,43.56
5265877,0.0035017508754377064,-0.008484242121060531,-9.811194457228614,2.5012506253126565e-05,-0.00013506753376688345,-6.003001500750375e-05,0,0,0,43.75
5265879,0.0035017508754377064,-0.008484242121060531,-9.811194457228614,2.5012506253126565e-05,-0.00013506753376688345,-6.003001500750375e-05,0,0,0,43.68
5265884,0.0035017508754377064,-0.008484242121060531,-9.811194457228614,2.5012506253126565e-05,-0.00013506753376688345,-6.003001500750375e-05,0,0,0,43.75
5265889,0.0035017508754377064,-0.008484242121060531,-9.811194457228614,2.5012506253126565e-05,-0.00013506753376688345,-6.003001500750375e-05,0,0,0,43.81
5265894,0.0035017508754377064,0.0015157578789394693,-9.811194457228614,2.5012506253126565e-05,-0.00013506753376688345,-6.003001500750375e-05,0,0,0,43.68
5265899,-0.006498249124562289,-0.008484242121060531,-9.811194457228614,2.5012506253126565e-05,-0.00013506753376688345,-6.003001500750375e-05,0,0,0,43.68
5265904,-0.006498249124562289,-0.008484242121060531,-9.801194457228615,2.5012506253126565e-05,-0.00013506753376688345,-6.003001500750375e-05,0,0,0,43.81
5265909,-0.006498249124562289,0.0015157578789394693,-9.801194457228615,2.5012506253126565e-05,-0.00013506753376688345,-6.003001500750375e-05,0,0,0,43.81
5265915,-0.006498249124562289,0.0015157578789394693,-9.801194457228615,2.5012506253126565e-05,-0.00013506753376688345,-6.003001500750375e-05,0,0,0,43.5
5265919,0.0035017508754377064,0.0015157578789394693,-9.801194457228615,2.5012506253126565e-05,-0.00013506753376688345,-6.003001500750375e-05,0,0,0,43.56
5265924,0.0035017508754377064,0.0015157578789394693,-9.811194457228614,2.5012506253126565e-05,-0.00013506753376688345,-6.003001500750375e-05,0,0,0,43.56
5265929,0.0035017508754377064,0.0015157578789394693,-9.811194457228614,2.5012506253126565e-05,-0.00013506753376688345,-6.003001500750375e-05,0,0,0,43.62
5265934,0.0035017508754377064,0.0015157578789394693,-9.811194457228614,2.5012506253126565e-05,-0.00013506753376688345,-6.003001500750375e-05,0,0,0,43.75
5265939,0.0035017508754377064,0.0015157578789394693,-9.811194457228614,2.5012506253126565e-05,-0.00013506753376688345,-6.003001500750375e-05,0,0,0,43.87
5265944,0.0035017508754377064,0.011515757878939468,-9.811194457228614,2.5012506253126565e-05,-0.00013506753376688345,-6.003001500750375e-05,0,0,0,43.56
5265949,0.0035017508754377064,0.0015157578789394693,-9.811194457228614,2.5012506253126565e-05,-0.00013506753376688345,-6.003001500750375e-05,0,0,0,43.75
5265954,0.0035017508754377064,0.0015157578789394693,-9.811194457228614,2.5012506253126565e-05,-0.00013506753376688345,-6.003001500750375e-05,0,0,0,43.56
5265959,0.0035017508754377064,0.0015157578789394693,-9.811194457228614,2.5012506253126565e-05,-0.00013506753376688345,-6.003001500750375e-05,0,0,0,43.87
5265964,0.0035017508754377064,-0.008484242121060531,-9.811194457228614,2.5012506253126565e-05,-0.00013506753376688345,-6.003001500750375e-05,0,0,0,43.56
5265969,0.0035017508754377064,0.0015157578789394693,-9.811194457228614,2.5012506253126565e-05,-0.00013506753376688345,-6.003001500750375e-05,0,0,0,43.56
5265974,0.0035017508754377064,-0.008484242121060531,-9.811194457228614,2.5012506253126565e-05,-0.00013506753376688345,-6.003001500750375e-05,0,0,0,43.75
5265979,0.0035017508754377064,-0.008484242121060531,-9.811194457228614,0.010025012506253126,-0.00013506753376688345,-6.003001500750375e-05,0,0,0,43.56
5265984,0.0035017508754377064,0.0015157578789394693,-9.811194457228614,2.5012506253126565e-05,-0.00013506753376688345,-6.003001500750375e-05,0,0,0,43.62
5265989,0.0035017508754377064,0.0015157578789394693,-9.811194457228614,2.5012506253126565e-05,-0.00013506753376688345,-6.003001500750375e-05,0,0,0,43.56
5265994,-0.006498249124562289,0.0015157578789394693,-9.811194457228614,2.5012506253126565e-05,-0.00013506753376688345,-6.003001500750375e-05,0,0,0,43.56
5265999,0.0035017508754377064,0.0015157578789394693,-9.811194457228614,2.5012506253126565e-05,-0.00013506753376688345,-6.003001500750375e-05,0,0,0,43.75
5266004,0.0035017508754377064,0.011515757878939468,-9.811194457228614,2.5012506253126565e-05,-0.00013506753376688345,-6.003001500750375e-05,0,0,0,43.56
5266009,0.0035017508754377064,0.0015157578789394693,-9.811194457228614,2.5012506253126565e-05,-0.00013506753376688345,-6.003001500750375e-05,0,0,0,43.75
5266015,0.0035017508754377064,0.0015157578789394693,-9.811194457228614,2.5012506253126565e-05,-0.00013506753376688345,-6.003001500750375e-05,0,0,0,43.87
5266019,0.0035017508754377064,0.0015157578789394693,-9.801194457228615,2.5012506253126565e-05,-0.00013506753376688345,-6.003001500750375e-05,0,0,0,43.75
5266024,0.0035017508754377064,-0.008484242121060531,-9.811194457228614,2.5012506253126565e-05,0.009864932466233116,-6.003001500750375e-05,0,0,0,43.68
5266029,0.0035017508754377064,-0.008484242121060531,-9.811194457228614,2.5012506253126565e-05,0.009864932466233116,-6.003001500750375e-05,0,0,0,43.93
5266034,-0.006498249124562289,-0.01848424212106053,-9.811194457228614,2.5012506253126565e-05,-0.00013506753376688345,-6.003001500750375e-05,0,0,0,43.68
5266039,-0.006498249124562289,-0.008484242121060531,-9.811194457228614,2.5012506253126565e-05,-0.00013506753376688345,-6.003001500750375e-05,0,0,0,43.75
5266044,-0.006498249124562289,-0.008484242121060531,-9.811194457228614,2.5012506253126565e-05,-0.00013506753376688345,-6.003001500750375e-05,0,0,0,43.56
5266049,0.0035017508754377064,0.0015157578789394693,-9.821194457228614,2.5012506253126565e-05,-0.00013506753376688345,-6.003001500750375e-05,0,0,0,43.68
5266054,0.0035017508754377064,0.0015157578789394693,-9.821194457228614,2.5012506253126565e-05,-0.00013506753376688345,-6.003001500750375e-05,0,0,0,43.81
5266059,0.0035017508754377064,0.0015157578789394693,-9.821194457228614,2.5012506253126565e-05,-0.00013506753376688345,-6.003001500750375e-05,0,0,0,43.56
5266064,0.013501750875437701,0.0015157578789394693,-9.821194457228614,2.5012506253126565e-05,-0.00013506753376688345,-6.003001500750375e-05,0,0,0,43.5
5266069,0.0035017508754377064,0.0015157578789394693,-9.811194457228614,2.5012506253126565e-05,-0.00013506753376688345,-6.003001500750375e-05,0,0,0,43.56
5266074,0.0035017508754377064,0.0015157578789394693,-9.811194457228614,2.5012506253126565e-05,-0.00013506753376688345,-6.003001500750375e-05,0,0,0,43.56
5266079,0.0035017508754377064,0.0015157578789394693,-9.811194457228614,2.5012506253126565e-05,-0.00013506753376688345,-6.003001500750375e-05,0,0,0,43.56
5266084,-0.006498249124562289,0.0015157578789394693,-9.811194457228614,2.5012506253126565e-05,-0.00013506753376688345,-6.003001500750375e-05,0,0,0,43.75
5266089,-0.006498249124562289,0.0015157578789394693,-9.811194457228614,2.5012506253126565e-05,0.009864932466233116,-6.003001500750375e-05,0,0,0,43.75
5266094,-0.006498249124562289,0.0015157578789394693,-9.811194457228614,2.5012506253126565e-05,-0.00013506753376688345,-6.003001500750375e-05,0,0,0,43.56
5266099,0.0035017508754377064,0.0015157578789394693,-9.821194457228614,2.5012506253126565e-05,-0.00013506753376688345,-6.003001500750375e-05,0,0,0,43.75
5266104,0.0035017508754377064,0.0015157578789394693,-9.821194457228614,2.5012506253126565e-05,-0.00013506753376688345,-6.003001500750375e-05,0,0,0,43.68
5266109,0.0035017508754377064,0.0015157578789394693,-9.811194457228614,2.5012506253126565e-05,-0.00013506753376688345,-6.003001500750375e-05,0,0,0,43.62
5266114,0.0035017508754377064,0.0015157578789394693,-9.811194457228614,2.5012506253126565e-05,-0.00013506753376688345,-6.003001500750375e-05,0,0,0,43.68
5266119,0.0035017508754377064,0.0015157578789394693,-9.811194457228614,2.5012506253126565e-05,-0.00013506753376688345,-6.003001500750375e-05,0,0,0,43.87
5266124,0.0035017508754377064,0.0015157578789394693,-9.811194457228614,2.5012506253126565e-05,-0.00013506753376688345,-6.003001500750375e-05,0,0,0,43.5
5266129,0.0035017508754377064,0.0015157578789394693,-9.811194457228614,2.5012506253126565e-05,-0.00013506753376688345,-6.003001500750375e-05,0,0,0,43.75
5266134,-0.006498249124562289,0.0015157578789394693,-9.811194457228614,2.5012506253126565e-05,-0.00013506753376688345,-6.003001500750375e-05,0,0,0,43.62
5266139,0.0035017508754377064,0.0015157578789394693,-9.811194457228614,2.5012506253126565e-05,-0.00013506753376688345,-6.003001500750375e-05,0,0,0,43.75
5266144,0.0035017508754377064,0.0015157578789394693,-9.811194457228614,2.5012506253126565e-05,-0.00013506753376688345,-6.003001500750375e-05,0,0,0,43.56
5266149,0.013501750875437701,0.0015157578789394693,-9.821194457228614,2.5012506253126565e-05,-0.00013506753376688345,-6.003001500750375e-05,0,0,0,43.81
5266154,0.013501750875437701,0.0015157578789394693,-9.811194457228614,2.5012506253126565e-05,-0.00013506753376688345,-6.003001500750375e-05,0,0,0,43.87
5266159,0.0035017508754377064,0.0015157578789394693,-9.811194457228614,2.5012506253126565e-05,-0.00013506753376688345,-6.003001500750375e-05,0,0,0,43.87
5266164,0.0035017508754377064,0.0015157578789394693,-9.811194457228614,2.5012506253126565e-05,-0.00013506753376688345,-6.003001500750375e-05,0,0,0,43.75
5266169,0.0035017508754377064,0.0015157578789394693,-9.811194457228614,2.5012506253126565e-05,-0.00013506753376688345,-6.003001500750375e-05,0,0,0,43.81
5266174,0.0035017508754377064,0.0015157578789394693,-9.811194457228614,2.5012506253126565e-05,-0.00013506753376688345,-6.003001500750375e-05,0,0,0,43.62
5266179,0.0035017508754377064,0.011515757878939468,-9.811194457228614,2.5012506253126565e-05,-0.00013506753376688345,-6.003001500750375e-05,0,0,0,43.68
5266184,0.0035017508754377064,0.011515757878939468,-9.811194457228614,2.5012506253126565e-05,-0.00013506753376688345,-6.003001500750375e-05,0,0,0,43.81
5266189,0.0035017508754377064,0.0015157578789394693,-9.821194457228614,2.5012506253126565e-05,-0.00013506753376688345,-6.003001500750375e-05,0,0,0,43.56
5266194,0.0035017508754377064,0.0015157578789394693,-9.821194457228614,2.5012506253126565e-05,0.009864932466233116,-6.003001500750375e-05,0,0,0,43.68
5266199,0.0035017508754377064,0.0015157578789394693,-9.821194457228614,2.5012506253126565e-05,-0.00013506753376688345,-6.003001500750375e-05,0,0,0,43.87
5266204,0.0035017508754377064,0.0015157578789394693,-9.821194457228614,2.5012506253126565e-05,-0.00013506753376688345,-6.003001500750375e-05,0,0,0,43.68
5266209,-0.006498249124562289,0.0015157578789394693,-9.811194457228614,2.5012506253126565e-05,-0.00013506753376688345,-6.003001500750375e-05,0,0,0,43.56
5266215,-0.006498249124562289,0.0015157578789394693,-9.811194457228614,2.5012506253126565e-05,-0.00013506753376688345,-6.003001500750375e-05,0,0,0,43.81
5266219,0.0035017508754377064,0.0015157578789394693,-9.811194457228614,2.5012506253126565e-05,-0.00013506753376688345,-6.003001500750375e-05,0,0,0,43.75
5266224,0.0035017508754377064,0.0015157578789394693,-9.811194457228614,2.5012506253126565e-05,-0.00013506753376688345,-6.003001500750375e-05,0,0,0,43.5
5266229,0.0035017508754377064,0.0015157578789394693,-9.811194457228614,2.5012506253126565e-05,-0.00013506753376688345,-6.003001500750375e-05,0,0,0,43.56
5266234,0.0035017508754377064,0.0015157578789394693,-9.811194457228614,2.5012506253126565e-05,-0.00013506753376688345,-6.003001500750375e-05,0,0,0,43.75
5266239,-0.006498249124562289,-0.008484242121060531,-9.811194457228614,2.5012506253126565e-05,-0.00013506753376688345,-6.003001500750375e-05,0,0,0,43.62
5266244,-0.006498249124562289,0.0015157578789394693,-9.811194457228614,2.5012506253126565e-05,-0.00013506753376688345,-6.003001500750375e-05,0,0,0,43.75
5266249,-0.006498249124562289,-0.008484242121060531,-9.821194457228614,2.5012506253126565e-05,-0.00013506753376688345,-6.003001500750375e-05,0,0,0,43.56
5266254,-0.006498249124562289,-0.008484242121060531,-9.821194457228614,2.5012506253126565e-05,-0.00013506753376688345,-6.003001500750375e-05,0,0,0,43.56
5266259,-0.006498249124562289,-0.008484242121060531,-9.831194457228614,2.5012506253126565e-05,-0.00013506753376688345,-6.003001500750375e-05,0,0,0,43.68
5266264,-0.006498249124562289,-0.008484242121060531,-9.831194457228614,2.5012506253126565e-05,-0.00013506753376688345,-6.003001500750375e-05,0,0,0,43.81
5266269,0.0035017508754377064,0.0015157578789394693,-9.831194457228614,2.5012506253126565e-05,-0.00013506753376688345,-6.003001500750375e-05,0,0,0,43.87
5266274,0.0035017508754377064,0.0015157578789394693,-9.821194457228614,2.5012506253126565e-05,-0.00013506753376688345,-6.003001500750375e-05,0,0,0,43.75
5266279,-0.006498249124562289,0.0015157578789394693,-9.821194457228614,2.5012506253126565e-05,-0.00013506753376688345,-6.003001500750375e-05,0,0,0,43.75
5266284,-0.006498249124562289,0.0015157578789394693,-9.821194457228614,2.5012506253126565e-05,-0.00013506753376688345,-6.003001500750375e-05,0,0,0,43.75
5266289,-0.006498249124562289,0.0015157578789394693,-9.821194457228614,2.5012506253126565e-05,-0.00013506753376688345,-6.003001500750375e-05,0,0,0,43.75
5266294,-0.006498249124562289,0.0015157578789394693,-9.811194457228614,2.5012506253126565e-05,-0.00013506753376688345,-6.003001500750375e-05,0,0,0,43.62
5266299,-0.006498249124562289,0.0015157578789394693,-9.811194457228614,2.5012506253126565e-05,-0.00013506753376688345,-6.003001500750375e-05,0,0,0,43.62
5266304,0.0035017508754377064,0.0015157578789394693,-9.821194457228614,2.5012506253126565e-05,-0.00013506753376688345,-6.003001500750375e-05,0,0,0,43.81
5266309,0.0035017508754377064,0.0015157578789394693,-9.821194457228614,2.5012506253126565e-05,-0.00013506753376688345,-6.003001500750375e-05,0,0,0,43.75
5266315,-0.006498249124562289,0.0015157578789394693,-9.821194457228614,2.5012506253126565e-05,-0.00013506753376688345,-6.003001500750375e-05,0,0,0,43.75
5266319,-0.006498249124562289,0.0015157578789394693,-9.811194457228614,2.5012506253126565e-05,-0.00013506753376688345,-6.003001500750375e-05,0,0,0,43.93
5266324,0.0035017508754377064,-0.008484242121060531,-9.811194457228614,2.5012506253126565e-05,-0.00013506753376688345,-6.003001500750375e-05,0,0,0,43.62
5266329,0.0035017508754377064,-0.008484242121060531,-9.811194457228614,2.5012506253126565e-05,-0.00013506753376688345,-6.003001500750375e-05,0,0,0,43.75
5266334,0.0035017508754377064,-0.008484242121060531,-9.811194457228614,2.5012506253126565e-05,0.009864932466233116,-6.003001500750375e-05,0,0,0,43.62
5266339,0.0035017508754377064,-0.008484242121060531,-9.811194457228614,2.5012506253126565e-05,0.009864932466233116,-6.003001500750375e-05,0,0,0,43.68
5266344,-0.006498249124562289,0.0015157578789394693,-9.811194457228614,2.5012506253126565e-05,0.009864932466233116,-6.003001500750375e-05,0,0,0,43.75
5266349,0.0035017508754377064,0.0015157578789394693,-9.811194457228614,2.5012506253126565e-05,-0.00013506753376688345,-6.003001500750375e-05,0,0,0,43.75
5266354,0.0035017508754377064,0.0015157578789394693,-9.811194457228614,2.5012506253126565e-05,-0.00013506753376688345,-6.003001500750375e-05,0,0,0,43.56
5266359,0.0035017508754377064,0.0015157578789394693,-9.811194457228614,2.5012506253126565e-05,-0.00013506753376688345,-6.003001500750375e-05,0,0,0,43.68
5266364,0.0035017508754377064,-0.008484242121060531,-9.811194457228614,2.5012506253126565e-05,-0.00013506753376688345,-6.003001500750375e-05,0,0,0,43.81
5266369,0.0035017508754377064,-0.008484242121060531,-9.811194457228614,2.5012506253126565e-05,-0.00013506753376688345,-6.003001500750375e-05,0,0,0,43.81
5266377,-0.006498249124562289,-0.008484242121060531,-9.821194457228614,2.5012506253126565e-05,-0.00013506753376688345,-6.003001500750375e-05,0,0,0,43.37
5266379,0.0035017508754377064,-0.008484242121060531,-9.821194457228614,2.5012506253126565e-05,-0.00013506753376688345,-6.003001500750375e-05,0,0,0,43.75
5266384,0.0035017508754377064,-0.008484242121060531,-9.811194457228614,2.5012506253126565e-05,-0.00013506753376688345,-6.003001500750375e-05,0,0,0,43.75
5266389,0.0035017508754377064,-0.008484242121060531,-9.811194457228614,2.5012506253126565e-05,-0.00013506753376688345,-6.003001500750375e-05,0,0,0,43.75
5266394,0.0035017508754377064,-0.008484242121060531,-9.811194457228614,2.5012506253126565e-05,-0.00013506753376688345,-6.003001500750375e-05,0,0,0,43.87
5266399,0.0035017508754377064,-0.008484242121060531,-9.811194457228614,2.5012506253126565e-05,-0.00013506753376688345,-6.003001500750375e-05,0,0,0,43.87
5266404,-0.006498249124562289,-0.008484242121060531,-9.811194457228614,2.5012506253126565e-05,-0.00013506753376688345,-6.003001500750375e-05,0,0,0,43.56
5266409,-0.006498249124562289,-0.008484242121060531,-9.811194457228614,2.5012506253126565e-05,-0.00013506753376688345,-6.003001500750375e-05,0,0,0,43.81
5266415,-0.006498249124562289,-0.008484242121060531,-9.821194457228614,2.5012506253126565e-05,-0.00013506753376688345,-6.003001500750375e-05,0,0,0,43.75
5266419,0.0035017508754377064,-0.008484242121060531,-9.821194457228614,2.5012506253126565e-05,-0.00013506753376688345,-6.003001500750375e-05,0,0,0,43.75
5266424,0.0035017508754377064,-0.008484242121060531,-9.821194457228614,2.5012506253126565e-05,-0.00013506753376688345,-6.003001500750375e-05,0,0,0,43.87
5266429,-0.006498249124562289,-0.008484242121060531,-9.821194457228614,2.5012506253126565e-05,-0.00013506753376688345,-6.003001500750375e-05,0,0,0,43.87
5266434,-0.006498249124562289,-0.008484242121060531,-9.821194457228614,2.5012506253126565e-05,-0.00013506753376688345,-6.003001500750375e-05,0,0,0,43.75
5266439,0.0035017508754377064,0.0015157578789394693,-9.811194457228614,2.5012506253126565e-05,-0.00013506753376688345,-6.003001500750375e-05,0,0,0,43.68
5266444,0.0035017508754377064,0.0015157578789394693,-9.811194457228614,2.5012506253126565e-05,-0.00013506753376688345,-6.003001500750375e-05,0,0,0,43.81
5266449,0.0035017508754377064,0.0015157578789394693,-9.811194457228614,2.5012506253126565e-05,-0.00013506753376688345,-6.003001500750375e-05,0,0,0,43.75
5266454,0.0035017508754377064,0.0015157578789394693,-9.811194457228614,2.5012506253126565e-05,-0.00013506753376688345,-6.003001500750375e-05,0,0,0,43.75
5266459,0.0035017508754377064,0.0015157578789394693,-9.811194457228614,2.5012506253126565e-05,-0.00013506753376688345,-6.003001500750375e-05,0,0,0,43.75
5266464,0.0035017508754377064,-0.008484242121060531,-9.821194457228614,2.5012506253126565e-05,-0.00013506753376688345,-6.003001500750375e-05,0,0,0,43.75
5266469,0.013501750875437701,0.0015157578789394693,-9.821194457228614,2.5012506253126565e-05,-0.00013506753376688345,-6.003001500750375e-05,0,0,0,43.75
5266474,0.013501750875437701,0.0015157578789394693,-9.821194457228614,2.5012506253126565e-05,-0.00013506753376688345,-6.003001500750375e-05,0,0,0,43.62
5266479,0.013501750875437701,0.0015157578789394693,-9.821194457228614,2.5012506253126565e-05,-0.00013506753376688345,-6.003001500750375e-05,0,0,0,43.56
5266484,0.0035017508754377064,0.0015157578789394693,-9.821194457228614,2.5012506253126565e-05,-0.00013506753376688345,-6.003001500750375e-05,0,0,0,43.87
5266489,0.0035017508754377064,0.0015157578789394693,-9.821194457228614,2.5012506253126565e-05,-0.00013506753376688345,-6.003001500750375e-05,0,0,0,43.75
5266494,0.0035017508754377064,0.0015157578789394693,-9.811194457228614,2.5012506253126565e-05,-0.00013506753376688345,-6.003001500750375e-05,0,0,0,43.68
5266499,-0.006498249124562289,0.0015157578789394693,-9.811194457228614,2.5012506253126565e-05,-0.00013506753376688345,-6.003001500750375e-05,0,0,0,43.75
5266504,-0.006498249124562289,0.0015157578789394693,-9.811194457228614,2.5012506253126565e-05,-0.00013506753376688345,-6.003001500750375e-05,0,0,0,43.87
5266509,-0.006498249124562289,0.0015157578789394693,-9.811194457228614,2.5012506253126565e-05,-0.00013506753376688345,-6.003001500750375e-05,0,0,0,43.81
5266515,-0.006498249124562289,0.0015157578789394693,-9.811194457228614,2.5012506253126565e-05,-0.00013506753376688345,-6.003001500750375e-05,0,0,0,43.5
5266519,-0.006498249124562289,0.0015157578789394693,-9.811194457228614,2.5012506253126565e-05,0.009864932466233116,-6.003001500750375e-05,0,0,0,43.87
5266524,-0.006498249124562289,0.0015157578789394693,-9.811194457228614,2.5012506253126565e-05,0.009864932466233116,-6.003001500750375e-05,0,0,0,43.81
5266529,-0.006498249124562289,0.011515757878939468,-9.811194457228614,2.5012506253126565e-05,-0.00013506753376688345,-6.003001500750375e-05,0,0,0,43.5
5266534,0.0035017508754377064,0.011515757878939468,-9.811194457228614,2.5012506253126565e-05,-0.00013506753376688345,-6.003001500750375e-05,0,0,0,43.75
5266539,0.0035017508754377064,0.011515757878939468,-9.811194457228614,2.5012506253126565e-05,-0.00013506753376688345,-6.003001500750375e-05,0,0,0,43.75
5266544,0.0035017508754377064,0.0015157578789394693,-9.811194457228614,2.5012506253126565e-05,-0.00013506753376688345,-6.003001500750375e-05,0,0,0,43.62
5266549,-0.006498249124562289,0.0015157578789394693,-9.811194457228614,2.5012506253126565e-05,-0.00013506753376688345,-6.003001500750375e-05,0,0,0,43.68
5266554,-0.006498249124562289,0.0015157578789394693,-9.811194457228614,2.5012506253126565e-05,-0.00013506753376688345,-6.003001500750375e-05,0,0,0,43.56
5266559,0.0035017508754377064,0.0015157578789394693,-9.811194457228614,2.5012506253126565e-05,-0.00013506753376688345,-6.003001500750375e-05,0,0,0,43.68
5266564,0.0035017508754377064,0.0015157578789394693,-9.821194457228614,2.5012506253126565e-05,-0.00013506753376688345,-6.003001500750375e-05,0,0,0,43.56
5266569,0.0035017508754377064,0.0015157578789394693,-9.811194457228614,2.5012506253126565e-05,-0.00013506753376688345,-6.003001500750375e-05,0,0,0,43.75
5266574,0.0035017508754377064,0.0015157578789394693,-9.811194457228614,2.5012506253126565e-05,-0.00013506753376688345,-6.003001500750375e-05,0,0,0,43.56
5266579,0.0035017508754377064,0.0015157578789394693,-9.811194457228614,2.5012506253126565e-05,-0.00013506753376688345,-6.003001500750375e-05,0,0,0,43.87
5266584,0.0035017508754377064,0.0015157578789394693,-9.811194457228614,2.5012506253126565e-05,-0.00013506753376688345,-6.003001500750375e-05,0,0,0,43.87
5266589,0.0035017508754377064,0.0015157578789394693,-9.811194457228614,2.5012506253126565e-05,-0.00013506753376688345,-6.003001500750375e-05,0,0,0,43.75
5266594,0.0035017508754377064,0.011515757878939468,-9.811194457228614,2.5012506253126565e-05,-0.00013506753376688345,-6.003001500750375e-05,0,0,0,43.68
5266599,0.0035017508754377064,0.011515757878939468,-9.811194457228614,2.5012506253126565e-05,-0.00013506753376688345,-6.003001500750375e-05,0,0,0,43.56
5266604,0.0035017508754377064,0.011515757878939468,-9.821194457228614,2.5012506253126565e-05,-0.00013506753376688345,-6.003001500750375e-05,0,0,0,43.62
5266609,-0.006498249124562289,0.011515757878939468,-9.811194457228614,2.5012506253126565e-05,-0.00013506753376688345,-6.003001500750375e-05,0,0,0,43.87
5266615,-0.016498249124562298,0.0015157578789394693,-9.811194457228614,2.5012506253126565e-05,-0.00013506753376688345,-6.003001500750375e-05,0,0,0,43.87
5266619,-0.006498249124562289,0.0015157578789394693,-9.811194457228614,2.5012506253126565e-05,-0.00013506753376688345,-6.003001500750375e-05,0,0,0,43.75
5266624,-0.006498249124562289,0.0015157578789394693,-9.811194457228614,2.5012506253126565e-05,-0.00013506753376688345,-6.003001500750375e-05,0,0,0,43.75
5266629,0.0035017508754377064,0.0015157578789394693,-9.811194457228614,2.5012506253126565e-05,-0.00013506753376688345,-6.003001500750375e-05,0,0,0,43.62
5266634,0.0035017508754377064,0.0015157578789394693,-9.811194457228614,2.5012506253126565e-05,-0.00013506753376688345,-6.003001500750375e-05,0,0,0,43.75
5266639,0.0035017508754377064,0.0015157578789394693,-9.811194457228614,2.5012506253126565e-05,-0.00013506753376688345,-6.003001500750375e-05,0,0,0,43.56
5266644,0.0035017508754377064,0.0015157578789394693,-9.811194457228614,2.5012506253126565e-05,-0.00013506753376688345,-6.003001500750375e-05,0,0,0,43.87
5266649,0.0035017508754377064,0.0015157578789394693,-9.821194457228614,2.5012506253126565e-05,-0.00013506753376688345,-6.003001500750375e-05,0,0,0,43.56
5266654,0.0035017508754377064,0.0015157578789394693,-9.821194457228614,2.5012506253126565e-05,-0.00013506753376688345,-6.003001500750375e-05,0,0,0,43.62
5266659,0.0035017508754377064,0.0015157578789394693,-9.821194457228614,2.5012506253126565e-05,-0.00013506753376688345,-6.003001500750375e-05,0,0,0,43.75
5266664,0.0035017508754377064,-0.008484242121060531,-9.821194457228614,2.5012506253126565e-05,-0.00013506753376688345,-6.003001500750375e-05,0,0,0,43.62
5266669,0.0035017508754377064,0.0015157578789394693,-9.811194457228614,2.5012506253126565e-05,-0.00013506753376688345,-6.003001500750375e-05,0,0,0,43.75
5266674,0.0035017508754377064,0.0015157578789394693,-9.811194457228614,2.5012506253126565e-05,-0.00013506753376688345,-6.003001500750375e-05,0,0,0,43.75
5266679,0.0035017508754377064,0.0015157578789394693,-9.811194457228614,2.5012506253126565e-05,-0.00013506753376688345,-6.003001500750375e-05,0,0,0,43.68
5266684,0.0035017508754377064,0.0015157578789394693,-9.811194457228614,2.5012506253126565e-05,-0.00013506753376688345,-6.003001500750375e-05,0,0,0,43.87
5266689,-0.006498249124562289,0.0015157578789394693,-9.811194457228614,2.5012506253126565e-05,-0.00013506753376688345,-6.003001500750375e-05,0,0,0,43.75
5266694,-0.006498249124562289,0.0015157578789394693,-9.801194457228615,2.5012506253126565e-05,-0.00013506753376688345,-6.003001500750375e-05,0,0,0,43.75
5266699,-0.006498249124562289,0.0015157578789394693,-9.801194457228615,2.5012506253126565e-05,-0.00013506753376688345,-6.003001500750375e-05,0,0,0,43.56
5266704,-0.006498249124562289,0.011515757878939468,-9.811194457228614,2.5012506253126565e-05,-0.00013506753376688345,-6.003001500750375e-05,0,0,0,43.31
5266709,-0.006498249124562289,0.011515757878939468,-9.811194457228614,2.5012506253126565e-05,-0.00013506753376688345,-6.003001500750375e-05,0,0,0,43.56
5266715,-0.006498249124562289,0.011515757878939468,-9.821194457228614,2.5012506253126565e-05,-0.00013506753376688345,-6.003001500750375e-05,0,0,0,43.87
5266719,0.0035017508754377064,0.011515757878939468,-9.821194457228614,2.5012506253126565e-05,-0.00013506753376688345,-6.003001500750375e-05,0,0,0,43.56
5266724,-0.006498249124562289,0.0015157578789394693,-9.821194457228614,2.5012506253126565e-05,-0.00013506753376688345,-6.003001500750375e-05,0,0,0,43.75
5266729,0.0035017508754377064,0.011515757878939468,-9.811194457228614,2.5012506253126565e-05,-0.00013506753376688345,-6.003001500750375e-05,0,0,0,43.87
5266734,0.0035017508754377064,0.011515757878939468,-9.811194457228614,2.5012506253126565e-05,-0.00013506753376688345,-6.003001500750375e-05,0,0,0,43.75
5266739,0.0035017508754377064,0.011515757878939468,-9.811194457228614,2.5012506253126565e-05,-0.00013506753376688345,-6.003001500750375e-05,0,0,0,43.75
5266744,0.0035017508754377064,0.011515757878939468,-9.801194457228615,2.5012506253126565e-05,-0.00013506753376688345,-6.003001500750375e-05,0,0,0,43.75
5266749,-0.006498249124562289,0.0015157578789394693,-9.811194457228614,2.5012506253126565e-05,-0.00013506753376688345,-6.003001500750375e-05,0,0,0,43.62
5266754,-0.006498249124562289,-0.008484242121060531,-9.811194457228614,2.5012506253126565e-05,-0.00013506753376688345,-6.003001500750375e-05,0,0,0,43.56
5266759,-0.006498249124562289,-0.008484242121060531,-9.811194457228614,2.5012506253126565e-05,-0.00013506753376688345,-6.003001500750375e-05,0,0,0,43.62
5266764,-0.006498249124562289,-0.008484242121060531,-9.811194457228614,2.5012506253126565e-05,-0.00013506753376688345,-6.003001500750375e-05,0,0,0,43.75
5266769,-0.006498249124562289,-0.008484242121060531,-9.811194457228614,2.5012506253126565e-05,-0.00013506753376688345,-6.003001500750375e-05,0,0,0,43.87
5266774,-0.006498249124562289,0.0015157578789394693,-9.811194457228614,2.5012506253126565e-05,-0.00013506753376688345,-6.003001500750375e-05,0,0,0,43.75
5266779,-0.006498249124562289,0.0015157578789394693,-9.811194457228614,2.5012506253126565e-05,-0.00013506753376688345,-6.003001500750375e-05,0,0,0,43.81
5266784,0.0035017508754377064,0.011515757878939468,-9.811194457228614,2.5012506253126565e-05,-0.00013506753376688345,-6.003001500750375e-05,0,0,0,43.75
5266789,0.0035017508754377064,0.011515757878939468,-9.811194457228614,2.5012506253126565e-05,-0.00013506753376688345,-6.003001500750375e-05,0,0,0,43.75
5266794,0.0035017508754377064,0.011515757878939468,-9.811194457228614,2.5012506253126565e-05,-0.00013506753376688345,-6.003001500750375e-05,0,0,0,43.87
5266799,0.013501750875437701,0.011515757878939468,-9.811194457228614,2.5012506253126565e-05,-0.00013506753376688345,-6.003001500750375e-05,0,0,0,43.62
5266804,0.013501750875437701,0.0015157578789394693,-9.811194457228614,2.5012506253126565e-05,-0.00013506753376688345,-6.003001500750375e-05,0,0,0,44.06
5266809,0.0035017508754377064,0.0015157578789394693,-9.811194457228614,2.5012506253126565e-05,-0.00013506753376688345,-6.003001500750375e-05,0,0,0,43.87
5266815,0.0035017508754377064,0.0015157578789394693,-9.811194457228614,2.5012506253126565e-05,-0.00013506753376688345,-6.003001500750375e-05,0,0,0,43.87
5266819,0.0035017508754377064,0.011515757878939468,-9.811194457228614,2.5012506253126565e-05,-0.00013506753376688345,-6.003001500750375e-05,0,0,0,43.87
5266824,0.0035017508754377064,0.011515757878939468,-9.811194457228614,2.5012506253126565e-05,-0.00013506753376688345,-6.003001500750375e-05,0,0,0,43.75
5266829,-0.006498249124562289,0.0015157578789394693,-9.811194457228614,2.5012506253126565e-05,-0.00013506753376688345,-6.003001500750375e-05,0,0,0,43.68
5266834,0.0035017508754377064,0.0015157578789394693,-9.811194457228614,2.5012506253126565e-05,-0.00013506753376688345,-6.003001500750375e-05,0,0,0,43.87
5266839,-0.006498249124562289,0.0015157578789394693,-9.811194457228614,2.5012506253126565e-05,-0.00013506753376688345,-6.003001500750375e-05,0,0,0,43.75
5266844,-0.006498249124562289,0.0015157578789394693,-9.811194457228614,2.5012506253126565e-05,-0.00013506753376688345,-6.003001500750375e-05,0,0,0,43.62
5266849,-0.006498249124562289,0.0015157578789394693,-9.811194457228614,2.5012506253126565e-05,-0.00013506753376688345,-6.003001500750375e-05,0,0,0,43.75
5266854,0.0035017508754377064,0.0015157578789394693,-9.811194457228614,2.5012506253126565e-05,-0.00013506753376688345,-6.003001500750375e-05,0,0,0,43.87
5266859,0.0035017508754377064,0.0015157578789394693,-9.811194457228614,2.5012506253126565e-05,-0.00013506753376688345,-6.003001500750375e-05,0,0,0,43.68
5266864,0.0035017508754377064,0.0015157578789394693,-9.811194457228614,2.5012506253126565e-05,-0.00013506753376688345,-6.003001500750375e-05,0,0,0,43.87
5266869,0.013501750875437701,0.0015157578789394693,-9.821194457228614,2.5012506253126565e-05,-0.00013506753376688345,-6.003001500750375e-05,0,0,0,43.87
5266877,0.0035017508754377064,0.0015157578789394693,-9.811194457228614,2.5012506253126565e-05,-0.00013506753376688345,-6.003001500750375e-05,0,0,0,43.75
5266879,0.0035017508754377064,0.0015157578789394693,-9.811194457228614,2.5012506253126565e-05,-0.00013506753376688345,-6.003001500750375e-05,0,0,0,44.0
5266884,0.0035017508754377064,0.0015157578789394693,-9.811194457228614,2.5012506253126565e-05,-0.00013506753376688345,-6.003001500750375e-05,0,0,0,43.62
5266889,-0.006498249124562289,0.0015157578789394693,-9.811194457228614,2.5012506253126565e-05,-0.00013506753376688345,-6.003001500750375e-05,0,0,0,43.87
5266894,-0.006498249124562289,0.0015157578789394693,-9.811194457228614,2.5012506253126565e-05,-0.00013506753376688345,-6.003001500750375e-05,0,0,0,43.56
5266899,-0.006498249124562289,0.0015157578789394693,-9.811194457228614,2.5012506253126565e-05,-0.00013506753376688345,-6.003001500750375e-05,0,0,0,43.62
5266904,-0.006498249124562289,0.0015157578789394693,-9.811194457228614,2.5012506253126565e-05,-0.00013506753376688345,-6.003001500750375e-05,0,0,0,43.75
5266909,-0.006498249124562289,0.0015157578789394693,-9.811194457228614,2.5012506253126565e-05,-0.00013506753376688345,-6.003001500750375e-05,0,0,0,43.87
5266915,-0.006498249124562289,0.0015157578789394693,-9.811194457228614,2.5012506253126565e-05,-0.00013506753376688345,-6.003001500750375e-05,0,0,0,43.75
5266919,0.0035017508754377064,0.0015157578789394693,-9.811194457228614,2.5012506253126565e-05,-0.00013506753376688345,-6.003001500750375e-05,0,0,0,43.62
5266924,0.0035017508754377064,0.0015157578789394693,-9.821194457228614,2.5012506253126565e-05,-0.00013506753376688345,-6.003001500750375e-05,0,0,0,43.56
5266929,0.0035017508754377064,0.0015157578789394693,-9.821194457228614,2.5012506253126565e-05,-0.00013506753376688345,-6.003001500750375e-05,0,0,0,43.75
5266934,0.0035017508754377064,0.0015157578789394693,-9.811194457228614,2.5012506253126565e-05,-0.00013506753376688345,-6.003001500750375e-05,0,0,0,43.62
5266939,0.0035017508754377064,-0.008484242121060531,-9.811194457228614,2.5012506253126565e-05,-0.00013506753376688345,-6.003001500750375e-05,0,0,0,43.75
5266944,0.0035017508754377064,0.0015157578789394693,-9.821194457228614,2.5012506253126565e-05,-0.00013506753376688345,-6.003001500750375e-05,0,0,0,43.56
5266949,-0.006498249124562289,0.0015157578789394693,-9.821194457228614,2.5012506253126565e-05,-0.00013506753376688345,-6.003001500750375e-05,0,0,0,43.81
5266954,0.0035017508754377064,0.0015157578789394693,-9.821194457228614,2.5012506253126565e-05,-0.00013506753376688345,-6.003001500750375e-05,0,0,0,43.93
5266959,0.0035017508754377064,0.0015157578789394693,-9.821194457228614,2.5012506253126565e-05,-0.00013506753376688345,-6.003001500750375e-05,0,0,0,43.62
5266964,0.0035017508754377064,0.0015157578789394693,-9.811194457228614,2.5012506253126565e-05,-0.00013506753376688345,-6.003001500750375e-05,0,0,0,43.75
5266969,0.0035017508754377064,0.0015157578789394693,-9.811194457228614,2.5012506253126565e-05,-0.00013506753376688345,-6.003001500750375e-05,0,0,0,43.81
5266974,-0.006498249124562289,0.0015157578789394693,-9.811194457228614,2.5012506253126565e-05,-0.00013506753376688345,-6.003001500750375e-05,0,0,0,43.68
5266979,-0.006498249124562289,0.0015157578789394693,-9.811194457228614,2.5012506253126565e-05,-0.00013506753376688345,-6.003001500750375e-05,0,0,0,43.75
5266984,-0.006498249124562289,0.0015157578789394693,-9.811194457228614,2.5012506253126565e-05,-0.00013506753376688345,-6.003001500750375e-05,0,0,0,43.56
5266989,0.0035017508754377064,-0.008484242121060531,-9.811194457228614,2.5012506253126565e-05,-0.00013506753376688345,-6.003001500750375e-05,0,0,0,43.5
5266994,-0.006498249124562289,0.0015157578789394693,-9.811194457228614,2.5012506253126565e-05,-0.00013506753376688345,-6.003001500750375e-05,0,0,0,43.75
5266999,0.0035017508754377064,-0.008484242121060531,-9.801194457228615,2.5012506253126565e-05,0.009864932466233116,-6.003001500750375e-05,0,0,0,43.56
5267004,0.0035017508754377064,-0.008484242121060531,-9.811194457228614,2.5012506253126565e-05,-0.00013506753376688345,-6.003001500750375e-05,0,0,0,43.75
5267009,0.0035017508754377064,0.0015157578789394693,-9.801194457228615,2.5012506253126565e-05,-0.00013506753376688345,-6.003001500750375e-05,0,0,0,43.75
5267015,0.0035017508754377064,-0.008484242121060531,-9.801194457228615,2.5012506253126565e-05,-0.00013506753376688345,-6.003001500750375e-05,0,0,0,43.56
5267019,0.0035017508754377064,-0.008484242121060531,-9.811194457228614,2.5012506253126565e-05,-0.00013506753376688345,-6.003001500750375e-05,0,0,0,43.62
5267024,0.0035017508754377064,-0.008484242121060531,-9.811194457228614,2.5012506253126565e-05,-0.00013506753376688345,-6.003001500750375e-05,0,0,0,43.81
5267029,0.0035017508754377064,-0.008484242121060531,-9.821194457228614,2.5012506253126565e-05,-0.00013506753376688345,-6.003001500750375e-05,0,0,0,43.5
5267034,-0.006498249124562289,0.0015157578789394693,-9.821194457228614,2.5012506253126565e-05,-0.00013506753376688345,-6.003001500750375e-05,0,0,0,43.62
5267039,-0.006498249124562289,0.0015157578789394693,-9.821194457228614,2.5012506253126565e-05,-0.00013506753376688345,-6.003001500750375e-05,0,0,0,43.68
5267044,-0.006498249124562289,0.011515757878939468,-9.821194457228614,2.5012506253126565e-05,-0.00013506753376688345,-6.003001500750375e-05,0,0,0,43.56
5267049,-0.006498249124562289,0.011515757878939468,-9.811194457228614,2.5012506253126565e-05,-0.00013506753376688345,-6.003001500750375e-05,0,0,0,43.62
5267054,0.0035017508754377064,0.011515757878939468,-9.801194457228615,2.5012506253126565e-05,-0.00013506753376688345,-6.003001500750375e-05,0,0,0,43.62
5267059,0.0035017508754377064,0.0015157578789394693,-9.801194457228615,2.5012506253126565e-05,-0.00013506753376688345,-6.003001500750375e-05,0,0,0,43.75
5267064,0.0035017508754377064,0.0015157578789394693,-9.801194457228615,2.5012506253126565e-05,-0.00013506753376688345,-6.003001500750375e-05,0,0,0,43.62
5267069,0.0035017508754377064,0.0015157578789394693,-9.811194457228614,2.5012506253126565e-05,-0.00013506753376688345,-6.003001500750375e-05,0,0,0,43.87
5267074,0.013501750875437701,0.0015157578789394693,-9.811194457228614,2.5012506253126565e-05,-0.00013506753376688345,-6.003001500750375e-05,0,0,0,43.75
5267079,0.013501750875437701,0.011515757878939468,-9.811194457228614,2.5012506253126565e-05,-0.00013506753376688345,-6.003001500750375e-05,0,0,0,43.75
5267084,0.013501750875437701,0.011515757878939468,-9.811194457228614,2.5012506253126565e-05,-0.00013506753376688345,-6.003001500750375e-05,0,0,0,43.5
5267089,0.013501750875437701,0.011515757878939468,-9.811194457228614,2.5012506253126565e-05,-0.00013506753376688345,-6.003001500750375e-05,0,0,0,43.75
5267094,0.013501750875437701,0.0015157578789394693,-9.811194457228614,2.5012506253126565e-05,-0.00013506753376688345,-6.003001500750375e-05,0,0,0,43.62
5267099,0.013501750875437701,0.0015157578789394693,-9.811194457228614,2.5012506253126565e-05,-0.00013506753376688345,-6.003001500750375e-05,0,0,0,43.75
5267104,0.0035017508754377064,0.0015157578789394693,-9.811194457228614,2.5012506253126565e-05,-0.00013506753376688345,-6.003001500750375e-05,0,0,0,43.56
5267109,0.0035017508754377064,0.0015157578789394693,-9.811194457228614,2.5012506253126565e-05,-0.00013506753376688345,-6.003001500750375e-05,0,0,0,43.87
5267115,0.0035017508754377064,0.0015157578789394693,-9.801194457228615,2.5012506253126565e-05,-0.00013506753376688345,-6.003001500750375e-05,0,0,0,43.68
5267119,0.0035017508754377064,0.0015157578789394693,-9.801194457228615,2.5012506253126565e-05,-0.00013506753376688345,-6.003001500750375e-05,0,0,0,43.56
5267124,0.0035017508754377064,0.0015157578789394693,-9.801194457228615,2.5012506253126565e-05,-0.00013506753376688345,-6.003001500750375e-05,0,0,0,43.81
5267129,0.0035017508754377064,0.0015157578789394693,-9.811194457228614,2.5012506253126565e-05,-0.00013506753376688345,-6.003001500750375e-05,0,0,0,43.93
5267134,0.0035017508754377064,0.0015157578789394693,-9.811194457228614,2.5012506253126565e-05,-0.00013506753376688345,-6.003001500750375e-05,0,0,0,43.81
5267139,0.0035017508754377064,0.0015157578789394693,-9.821194457228614,2.5012506253126565e-05,-0.00013506753376688345,-6.003001500750375e-05,0,0,0,43.62
5267144,0.0035017508754377064,0.0015157578789394693,-9.821194457228614,2.5012506253126565e-05,-0.00013506753376688345,-6.003001500750375e-05,0,0,0,43.81
5267149,0.0035017508754377064,0.0015157578789394693,-9.821194457228614,2.5012506253126565e-05,-0.00013506753376688345,-6.003001500750375e-05,0,0,0,43.75
5267154,-0.006498249124562289,0.0015157578789394693,-9.821194457228614,2.5012506253126565e-05,-0.00013506753376688345,-6.003001500750375e-05,0,0,0,43.5
5267159,-0.006498249124562289,0.0015157578789394693,-9.821194457228614,2.5012506253126565e-05,-0.00013506753376688345,-6.003001500750375e-05,0,0,0,43.93
5267164,-0.006498249124562289,-0.008484242121060531,-9.821194457228614,2.5012506253126565e-05,-0.00013506753376688345,-6.003001500750375e-05,0,0,0,44.06
5267169,-0.006498249124562289,0.0015157578789394693,-9.821194457228614,2.5012506253126565e-05,-0.00013506753376688345,-6.003001500750375e-05,0,0,0,43.75
5267174,-0.006498249124562289,0.0015157578789394693,-9.821194457228614,2.5012506253126565e-05,-0.00013506753376688345,-6.003001500750375e-05,0,0,0,43.75
5267179,-0.006498249124562289,0.0015157578789394693,-9.821194457228614,2.5012506253126565e-05,-0.00013506753376688345,-6.003001500750375e-05,0,0,0,43.75
5267184,-0.006498249124562289,0.0015157578789394693,-9.811194457228614,2.5012506253126565e-05,-0.00013506753376688345,-6.003001500750375e-05,0,0,0,43.56
5267189,0.0035017508754377064,0.0015157578789394693,-9.811194457228614,2.5012506253126565e-05,-0.00013506753376688345,-6.003001500750375e-05,0,0,0,43.75
5267194,-0.006498249124562289,0.0015157578789394693,-9.811194457228614,2.5012506253126565e-05,-0.00013506753376688345,-6.003001500750375e-05,0,0,0,43.81
5267199,-0.006498249124562289,0.0015157578789394693,-9.811194457228614,2.5012506253126565e-05,-0.00013506753376688345,-6.003001500750375e-05,0,0,0,43.75
5267204,-0.006498249124562289,0.0015157578789394693,-9.811194457228614,2.5012506253126565e-05,-0.00013506753376688345,-6.003001500750375e-05,0,0,0,43.56
5267209,-0.006498249124562289,0.011515757878939468,-9.811194457228614,2.5012506253126565e-05,-0.00013506753376688345,-6.003001500750375e-05,0,0,0,43.68
5267215,-0.006498249124562289,0.011515757878939468,-9.811194457228614,2.5012506253126565e-05,-0.00013506753376688345,-6.003001500750375e-05,0,0,0,43.56
5267219,-0.006498249124562289,0.011515757878939468,-9.811194457228614,2.5012506253126565e-05,-0.00013506753376688345,-6.003001500750375e-05,0,0,0,43.62
5267224,0.0035017508754377064,0.0015157578789394693,-9.811194457228614,2.5012506253126565e-05,-0.00013506753376688345,-6.003001500750375e-05,0,0,0,43.68
5267229,0.0035017508754377064,0.0015157578789394693,-9.811194457228614,2.5012506253126565e-05,-0.00013506753376688345,-6.003001500750375e-05,0,0,0,43.87
5267234,0.0035017508754377064,0.0015157578789394693,-9.811194457228614,2.5012506253126565e-05,0.009864932466233116,-6.003001500750375e-05,0,0,0,43.87
5267239,0.0035017508754377064,0.0015157578789394693,-9.811194457228614,2.5012506253126565e-05,-0.00013506753376688345,-6.003001500750375e-05,0,0,0,43.75
5267244,0.0035017508754377064,0.011515757878939468,-9.811194457228614,2.5012506253126565e-05,-0.00013506753376688345,-6.003001500750375e-05,0,0,0,43.68
5267249,0.0035017508754377064,0.011515757878939468,-9.811194457228614,2.5012506253126565e-05,-0.00013506753376688345,-6.003001500750375e-05,0,0,0,43.56
5267254,0.0035017508754377064,0.011515757878939468,-9.821194457228614,2.5012506253126565e-05,-0.00013506753376688345,-6.003001500750375e-05,0,0,0,43.87
5267259,0.0035017508754377064,0.0015157578789394693,-9.811194457228614,2.5012506253126565e-05,-0.00013506753376688345,-6.003001500750375e-05,0,0,0,43.75
5267264,0.0035017508754377064,0.0015157578789394693,-9.811194457228614,2.5012506253126565e-05,-0.00013506753376688345,-6.003001500750375e-05,0,0,0,43.87
5267269,-0.006498249124562289,0.0015157578789394693,-9.821194457228614,2.5012506253126565e-05,-0.00013506753376688345,-6.003001500750375e-05,0,0,0,43.87
5267274,-0.006498249124562289,0.0015157578789394693,-9.811194457228614,2.5012506253126565e-05,-0.00013506753376688345,-6.003001500750375e-05,0,0,0,43.75
5267279,-0.006498249124562289,0.0015157578789394693,-9.811194457228614,2.5012506253126565e-05,-0.00013506753376688345,-6.003001500750375e-05,0,0,0,43.75
5267284,-0.006498249124562289,0.0015157578789394693,-9.811194457228614,2.5012506253126565e-05,-0.00013506753376688345,-6.003001500750375e-05,0,0,0,43.68
5267289,-0.006498249124562289,0.0015157578789394693,-9.811194457228614,2.5012506253126565e-05,-0.00013506753376688345,-6.003001500750375e-05,0,0,0,43.81
5267294,0.0035017508754377064,0.0015157578789394693,-9.811194457228614,2.5012506253126565e-05,-0.00013506753376688345,-6.003001500750375e-05,0,0,0,43.68
5267299,0.0035017508754377064,0.0015157578789394693,-9.821194457228614,2.5012506253126565e-05,-0.00013506753376688345,-6.003001500750375e-05,0,0,0,43.75
5267304,0.0035017508754377064,0.0015157578789394693,-9.821194457228614,2.5012506253126565e-05,-0.00013506753376688345,-6.003001500750375e-05,0,0,0,43.62
5267309,0.0035017508754377064,0.0015157578789394693,-9.811194457228614,2.5012506253126565e-05,-0.00013506753376688345,-6.003001500750375e-05,0,0,0,43.68
5267315,0.0035017508754377064,0.011515757878939468,-9.811194457228614,2.5012506253126565e-05,-0.00013506753376688345,-6.003001500750375e-05,0,0,0,43.75
5267319,0.0035017508754377064,0.0015157578789394693,-9.811194457228614,2.5012506253126565e-05,-0.00013506753376688345,-6.003001500750375e-05,0,0,0,43.62
5267324,0.0035017508754377064,0.0015157578789394693,-9.811194457228614,2.5012506253126565e-05,-0.00013506753376688345,-6.003001500750375e-05,0,0,0,43.75
5267329,0.0035017508754377064,0.0015157578789394693,-9.811194457228614,2.5012506253126565e-05,-0.00013506753376688345,-6.003001500750375e-05,0,0,0,43.62
5267334,0.0035017508754377064,0.0015157578789394693,-9.811194457228614,2.5012506253126565e-05,-0.00013506753376688345,-6.003001500750375e-05,0,0,0,43.62
5267339,0.0035017508754377064,0.011515757878939468,-9.811194457228614,2.5012506253126565e-05,-0.00013506753376688345,-6.003001500750375e-05,0,0,0,43.93
5267344,0.0035017508754377064,0.011515757878939468,-9.811194457228614,2.5012506253126565e-05,-0.00013506753376688345,-6.003001500750375e-05,0,0,0,43.68
5267349,0.0035017508754377064,0.011515757878939468,-9.811194457228614,2.5012506253126565e-05,-0.00013506753376688345,-6.003001500750375e-05,0,0,0,43.75
5267354,0.0035017508754377064,0.011515757878939468,-9.801194457228615,2.5012506253126565e-05,-0.00013506753376688345,-6.003001500750375e-05,0,0,0,43.81
5267359,0.013501750875437701,0.011515757878939468,-9.811194457228614,2.5012506253126565e-05,-0.00013506753376688345,-6.003001500750375e-05,0,0,0,43.62
5267364,0.0035017508754377064,0.0015157578789394693,-9.811194457228614,2.5012506253126565e-05,-0.00013506753376688345,-6.003001500750375e-05,0,0,0,43.68
5267369,0.0035017508754377064,0.0015157578789394693,-9.811194457228614,2.5012506253126565e-05,-0.00013506753376688345,-6.003001500750375e-05,0,0,0,43.68
5267379,0.0035017508754377064,0.0015157578789394693,-9.811194457228614,2.5012506253126565e-05,-0.00013506753376688345,-6.003001500750375e-05,0,0,0,43.87
5267379,0.0035017508754377064,0.0015157578789394693,-9.811194457228614,2.5012506253126565e-05,-0.00013506753376688345,-6.003001500750375e-05,0,0,0,43.87
5267384,0.0035017508754377064,0.0015157578789394693,-9.811194457228614,2.5012506253126565e-05,-0.00013506753376688345,-6.003001500750375e-05,0,0,0,43.68
5267389,0.0035017508754377064,0.0015157578789394693,-9.811194457228614,2.5012506253126565e-05,-0.00013506753376688345,-6.003001500750375e-05,0,0,0,43.75
5267394,0.0035017508754377064,0.0015157578789394693,-9.811194457228614,2.5012506253126565e-05,-0.00013506753376688345,-6.003001500750375e-05,0,0,0,43.68
5267399,-0.006498249124562289,0.0015157578789394693,-9.811194457228614,2.5012506253126565e-05,-0.00013506753376688345,-6.003001500750375e-05,0,0,0,43.56
5267404,-0.006498249124562289,0.0015157578789394693,-9.811194457228614,2.5012506253126565e-05,-0.00013506753376688345,-6.003001500750375e-05,0,0,0,43.62
5267409,-0.006498249124562289,0.0015157578789394693,-9.811194457228614,2.5012506253126565e-05,-0.00013506753376688345,-6.003001500750375e-05,0,0,0,43.68
5267415,-0.006498249124562289,0.0015157578789394693,-9.821194457228614,2.5012506253126565e-05,-0.00013506753376688345,-6.003001500750375e-05,0,0,0,43.87
5267419,-0.006498249124562289,0.0015157578789394693,-9.821194457228614,2.5012506253126565e-05,-0.00013506753376688345,-6.003001500750375e-05,0,0,0,43.87
5267424,0.0035017508754377064,0.0015157578789394693,-9.811194457228614,2.5012506253126565e-05,-0.00013506753376688345,-6.003001500750375e-05,0,0,0,43.81
5267429,0.0035017508754377064,0.0015157578789394693,-9.811194457228614,2.5012506253126565e-05,0.009864932466233116,-6.003001500750375e-05,0,0,0,43.75
5267434,0.013501750875437701,0.0015157578789394693,-9.811194457228614,2.5012506253126565e-05,-0.00013506753376688345,-6.003001500750375e-05,0,0,0,43.81
5267439,0.0035017508754377064,0.0015157578789394693,-9.811194457228614,2.5012506253126565e-05,-0.00013506753376688345,-6.003001500750375e-05,0,0,0,43.62
5267444,0.0035017508754377064,0.0015157578789394693,-9.811194457228614,2.5012506253126565e-05,-0.00013506753376688345,-6.003001500750375e-05,0,0,0,43.81
5267449,0.0035017508754377064,0.0015157578789394693,-9.811194457228614,2.5012506253126565e-05,-0.00013506753376688345,-6.003001500750375e-05,0,0,0,43.75
5267454,0.0035017508754377064,-0.008484242121060531,-9.801194457228615,2.5012506253126565e-05,-0.00013506753376688345,-6.003001500750375e-05,0,0,0,43.62
5267459,0.0035017508754377064,-0.008484242121060531,-9.801194457228615,2.5012506253126565e-05,-0.00013506753376688345,-6.003001500750375e-05,0,0,0,43.75
5267464,0.0035017508754377064,-0.008484242121060531,-9.801194457228615,2.5012506253126565e-05,-0.00013506753376688345,-6.003001500750375e-05,0,0,0,43.5
5267469,0.0035017508754377064,-0.008484242121060531,-9.811194457228614,2.5012506253126565e-05,-0.00013506753376688345,-6.003001500750375e-05,0,0,0,43.75
5267474,0.0035017508754377064,-0.008484242121060531,-9.811194457228614,2.5012506253126565e-05,-0.00013506753376688345,-6.003001500750375e-05,0,0,0,43.87
5267479,0.0035017508754377064,0.0015157578789394693,-9.811194457228614,2.5012506253126565e-05,-0.00013506753376688345,-6.003001500750375e-05,0,0,0,43.75
5267484,0.0035017508754377064,0.0015157578789394693,-9.811194457228614,2.5012506253126565e-05,-0.00013506753376688345,-6.003001500750375e-05,0,0,0,43.56
5267489,-0.006498249124562289,0.0015157578789394693,-9.811194457228614,2.5012506253126565e-05,-0.00013506753376688345,-6.003001500750375e-05,0,0,0,43.68
5267494,-0.006498249124562289,-0.008484242121060531,-9.811194457228614,2.5012506253126565e-05,-0.00013506753376688345,-6.003001500750375e-05,0,0,0,43.62
5267499,-0.006498249124562289,-0.008484242121060531,-9.821194457228614,2.5012506253126565e-05,-0.00013506753376688345,-6.003001500750375e-05,0,0,0,43.75
5267504,0.0035017508754377064,0.0015157578789394693,-9.821194457228614,2.5012506253126565e-05,-0.00013506753376688345,-6.003001500750375e-05,0,0,0,43.81
5267509,0.0035017508754377064,0.0015157578789394693,-9.811194457228614,2.5012506253126565e-05,-0.00013506753376688345,-6.003001500750375e-05,0,0,0,43.87
5267515,0.0035017508754377064,0.0015157578789394693,-9.821194457228614,2.5012506253126565e-05,-0.00013506753376688345,-6.003001500750375e-05,0,0,0,43.68
5267519,0.0035017508754377064,0.0015157578789394693,-9.811194457228614,2.5012506253126565e-05,-0.00013506753376688345,-6.003001500750375e-05,0,0,0,43.81
5267524,0.0035017508754377064,0.0015157578789394693,-9.811194457228614,2.5012506253126565e-05,-0.00013506753376688345,-6.003001500750375e-05,0,0,0,43.37
5267529,0.0035017508754377064,0.0015157578789394693,-9.811194457228614,2.5012506253126565e-05,0.009864932466233116,-6.003001500750375e-05,0,0,0,43.75
5267534,0.0035017508754377064,0.0015157578789394693,-9.811194457228614,2.5012506253126565e-05,0.009864932466233116,-6.003001500750375e-05,0,0,0,43.62
5267539,0.0035017508754377064,0.0015157578789394693,-9.811194457228614,2.5012506253126565e-05,-0.00013506753376688345,-6.003001500750375e-05,0,0,0,43.75
5267544,0.0035017508754377064,0.0015157578789394693,-9.801194457228615,2.5012506253126565e-05,-0.00013506753376688345,-6.003001500750375e-05,0,0,0,43.81
5267549,0.0035017508754377064,0.0015157578789394693,-9.811194457228614,2.5012506253126565e-05,-0.00013506753376688345,-6.003001500750375e-05,0,0,0,43.75
5267554,0.0035017508754377064,0.0015157578789394693,-9.811194457228614,2.5012506253126565e-05,-0.00013506753376688345,-6.003001500750375e-05,0,0,0,43.68
5267559,0.0035017508754377064,0.0015157578789394693,-9.811194457228614,2.5012506253126565e-05,-0.00013506753376688345,-6.003001500750375e-05,0,0,0,44.0
5267564,0.013501750875437701,0.0015157578789394693,-9.811194457228614,2.5012506253126565e-05,-0.00013506753376688345,-6.003001500750375e-05,0,0,0,43.75
5267569,0.013501750875437701,-0.008484242121060531,-9.801194457228615,2.5012506253126565e-05,-0.00013506753376688345,-6.003001500750375e-05,0,0,0,43.75
5267574,0.0035017508754377064,-0.008484242121060531,-9.811194457228614,2.5012506253126565e-05,-0.00013506753376688345,-6.003001500750375e-05,0,0,0,43.56
5267579,0.0035017508754377064,-0.008484242121060531,-9.811194457228614,2.5012506253126565e-05,-0.00013506753376688345,-6.003001500750375e-05,0,0,0,43.56
5267584,0.0035017508754377064,-0.008484242121060531,-9.811194457228614,2.5012506253126565e-05,-0.00013506753376688345,-6.003001500750375e-05,0,0,0,43.5
5267589,0.0035017508754377064,-0.008484242121060531,-9.811194457228614,2.5012506253126565e-05,-0.00013506753376688345,-6.003001500750375e-05,0,0,0,44.0
5267594,0.0035017508754377064,0.0015157578789394693,-9.811194457228614,2.5012506253126565e-05,-0.00013506753376688345,-6.003001500750375e-05,0,0,0,43.87
5267599,0.0035017508754377064,0.0015157578789394693,-9.811194457228614,2.5012506253126565e-05,-0.00013506753376688345,-6.003001500750375e-05,0,0,0,43.56
5267604,0.0035017508754377064,0.0015157578789394693,-9.811194457228614,2.5012506253126565e-05,-0.00013506753376688345,-6.003001500750375e-05,0,0,0,43.75
5267609,0.0035017508754377064,0.0015157578789394693,-9.811194457228614,2.5012506253126565e-05,-0.00013506753376688345,-6.003001500750375e-05,0,0,0,43.93
5267615,0.0035017508754377064,0.0015157578789394693,-9.801194457228615,2.5012506253126565e-05,-0.00013506753376688345,-6.003001500750375e-05,0,0,0,43.68
5267619,0.013501750875437701,0.0015157578789394693,-9.801194457228615,2.5012506253126565e-05,-0.00013506753376688345,-6.003001500750375e-05,0,0,0,43.75
5267625,0.013501750875437701,0.0015157578789394693,-9.811194457228614,2.5012506253126565e-05,-0.00013506753376688345,-6.003001500750375e-05,0,0,0,43.75
5267629,0.0035017508754377064,0.0015157578789394693,-9.811194457228614,2.5012506253126565e-05,-0.00013506753376688345,-6.003001500750375e-05,0,0,0,43.62
5267634,0.0035017508754377064,0.0015157578789394693,-9.811194457228614,2.5012506253126565e-05,-0.00013506753376688345,-6.003001500750375e-05,0,0,0,43.75
5267639,0.0035017508754377064,0.0015157578789394693,-9.811194457228614,2.5012506253126565e-05,-0.00013506753376688345,-6.003001500750375e-05,0,0,0,43.56
5267644,-0.006498249124562289,-0.008484242121060531,-9.811194457228614,2.5012506253126565e-05,-0.00013506753376688345,-6.003001500750375e-05,0,0,0,43.81
5267649,-0.006498249124562289,-0.008484242121060531,-9.811194457228614,2.5012506253126565e-05,-0.00013506753376688345,-6.003001500750375e-05,0,0,0,43.75
5267654,-0.006498249124562289,-0.008484242121060531,-9.811194457228614,2.5012506253126565e-05,-0.00013506753376688345,-6.003001500750375e-05,0,0,0,43.68
5267659,-0.006498249124562289,-0.008484242121060531,-9.811194457228614,2.5012506253126565e-05,-0.00013506753376688345,-6.003001500750375e-05,0,0,0,43.75
5267664,-0.006498249124562289,-0.008484242121060531,-9.811194457228614,2.5012506253126565e-05,-0.00013506753376688345,-6.003001500750375e-05,0,0,0,43.56
5267669,-0.006498249124562289,-0.008484242121060531,-9.811194457228614,2.5012506253126565e-05,-0.00013506753376688345,-6.003001500750375e-05,0,0,0,43.68
5267674,-0.006498249124562289,0.0015157578789394693,-9.811194457228614,2.5012506253126565e-05,-0.00013506753376688345,-6.003001500750375e-05,0,0,0,43.5
5267679,-0.006498249124562289,0.0015157578789394693,-9.811194457228614,2.5012506253126565e-05,-0.00013506753376688345,-6.003001500750375e-05,0,0,0,43.87
5267684,-0.006498249124562289,0.0015157578789394693,-9.811194457228614,2.5012506253126565e-05,-0.00013506753376688345,-6.003001500750375e-05,0,0,0,43.81
5267689,-0.006498249124562289,0.0015157578789394693,-9.811194457228614,2.5012506253126565e-05,-0.00013506753376688345,-6.003001500750375e-05,0,0,0,43.75
5267694,0.0035017508754377064,-0.008484242121060531,-9.811194457228614,2.5012506253126565e-05,-0.00013506753376688345,-6.003001500750375e-05,0,0,0,43.87
5267699,-0.006498249124562289,-0.008484242121060531,-9.811194457228614,2.5012506253126565e-05,-0.00013506753376688345,-6.003001500750375e-05,0,0,0,43.75
5267704,-0.006498249124562289,-0.008484242121060531,-9.811194457228614,2.5012506253126565e-05,-0.00013506753376688345,-6.003001500750375e-05,0,0,0,43.75
5267709,-0.006498249124562289,0.0015157578789394693,-9.811194457228614,2.5012506253126565e-05,-0.00013506753376688345,-6.003001500750375e-05,0,0,0,43.62
5267715,-0.006498249124562289,0.0015157578789394693,-9.811194457228614,2.5012506253126565e-05,-0.00013506753376688345,-6.003001500750375e-05,0,0,0,43.87
5267719,-0.006498249124562289,0.0015157578789394693,-9.821194457228614,2.5012506253126565e-05,-0.00013506753376688345,-6.003001500750375e-05,0,0,0,43.87
5267724,-0.006498249124562289,0.0015157578789394693,-9.811194457228614,2.5012506253126565e-05,-0.00013506753376688345,-6.003001500750375e-05,0,0,0,43.81
5267729,-0.006498249124562289,0.0015157578789394693,-9.811194457228614,2.5012506253126565e-05,-0.00013506753376688345,-6.003001500750375e-05,0,0,0,43.87
5267734,-0.006498249124562289,0.0015157578789394693,-9.811194457228614,2.5012506253126565e-05,-0.00013506753376688345,-6.003001500750375e-05,0,0,0,43.87
5267739,-0.006498249124562289,-0.008484242121060531,-9.821194457228614,2.5012506253126565e-05,-0.00013506753376688345,-6.003001500750375e-05,0,0,0,43.75
5267744,0.0035017508754377064,-0.008484242121060531,-9.821194457228614,2.5012506253126565e-05,-0.00013506753376688345,-6.003001500750375e-05,0,0,0,43.75
5267749,0.0035017508754377064,0.0015157578789394693,-9.811194457228614,2.5012506253126565e-05,-0.00013506753376688345,-6.003001500750375e-05,0,0,0,43.75
5267754,0.0035017508754377064,0.0015157578789394693,-9.801194457228615,2.5012506253126565e-05,-0.00013506753376688345,-6.003001500750375e-05,0,0,0,43.75
5267759,0.0035017508754377064,0.0015157578789394693,-9.801194457228615,2.5012506253126565e-05,-0.00013506753376688345,-6.003001500750375e-05,0,0,0,43.75
5267764,0.0035017508754377064,0.0015157578789394693,-9.801194457228615,2.5012506253126565e-05,-0.00013506753376688345,-6.003001500750375e-05,0,0,0,44.0
5267769,0.0035017508754377064,0.011515757878939468,-9.801194457228615,2.5012506253126565e-05,-0.00013506753376688345,-6.003001500750375e-05,0,0,0,43.56
5267774,0.0035017508754377064,0.0015157578789394693,-9.811194457228614,2.5012506253126565e-05,-0.00013506753376688345,-6.003001500750375e-05,0,0,0,43.75
5267779,0.0035017508754377064,0.0015157578789394693,-9.811194457228614,2.5012506253126565e-05,-0.00013506753376688345,-6.003001500750375e-05,0,0,0,43.75
5267784,0.0035017508754377064,0.0015157578789394693,-9.811194457228614,2.5012506253126565e-05,-0.00013506753376688345,-6.003001500750375e-05,0,0,0,43.62
5267789,0.0035017508754377064,0.0015157578789394693,-9.811194457228614,2.5012506253126565e-05,-0.00013506753376688345,-6.003001500750375e-05,0,0,0,43.81
5267794,0.0035017508754377064,0.0015157578789394693,-9.811194457228614,2.5012506253126565e-05,-0.00013506753376688345,-6.003001500750375e-05,0,0,0,43.87
5267799,0.0035017508754377064,0.0015157578789394693,-9.801194457228615,2.5012506253126565e-05,-0.00013506753376688345,-6.003001500750375e-05,0,0,0,43.81
5267804,0.0035017508754377064,0.0015157578789394693,-9.801194457228615,2.5012506253126565e-05,-0.00013506753376688345,-6.003001500750375e-05,0,0,0,43.87
5267809,0.0035017508754377064,0.0015157578789394693,-9.801194457228615,2.5012506253126565e-05,-0.00013506753376688345,-6.003001500750375e-05,0,0,0,43.87
5267815,-0.006498249124562289,0.0015157578789394693,-9.801194457228615,2.5012506253126565e-05,-0.00013506753376688345,-6.003001500750375e-05,0,0,0,43.62
5267819,-0.006498249124562289,0.0015157578789394693,-9.801194457228615,2.5012506253126565e-05,-0.00013506753376688345,-6.003001500750375e-05,0,0,0,43.68
5267824,-0.006498249124562289,0.0015157578789394693,-9.811194457228614,2.5012506253126565e-05,-0.00013506753376688345,-6.003001500750375e-05,0,0,0,43.87
5267829,0.0035017508754377064,0.0015157578789394693,-9.811194457228614,2.5012506253126565e-05,-0.00013506753376688345,-6.003001500750375e-05,0,0,0,43.62
5267834,0.0035017508754377064,0.0015157578789394693,-9.811194457228614,2.5012506253126565e-05,-0.00013506753376688345,-6.003001500750375e-05,0,0,0,43.68
5267839,-0.006498249124562289,0.0015157578789394693,-9.821194457228614,2.5012506253126565e-05,-0.00013506753376688345,-6.003001500750375e-05,0,0,0,43.75
5267844,0.0035017508754377064,0.0015157578789394693,-9.821194457228614,2.5012506253126565e-05,-0.00013506753376688345,-6.003001500750375e-05,0,0,0,43.93
5267849,0.0035017508754377064,0.0015157578789394693,-9.821194457228614,2.5012506253126565e-05,-0.00013506753376688345,-6.003001500750375e-05,0,0,0,43.62
5267854,0.0035017508754377064,0.0015157578789394693,-9.811194457228614,2.5012506253126565e-05,-0.00013506753376688345,-6.003001500750375e-05,0,0,0,43.81
5267859,0.0035017508754377064,0.0015157578789394693,-9.811194457228614,2.5012506253126565e-05,-0.00013506753376688345,-6.003001500750375e-05,0,0,0,43.75
5267864,0.0035017508754377064,0.0015157578789394693,-9.811194457228614,2.5012506253126565e-05,-0.00013506753376688345,-6.003001500750375e-05,0,0,0,43.5
5267869,-0.006498249124562289,0.0015157578789394693,-9.811194457228614,2.5012506253126565e-05,-0.00013506753376688345,-6.003001500750375e-05,0,0,0,43.81
5267877,-0.006498249124562289,0.0015157578789394693,-9.811194457228614,2.5012506253126565e-05,-0.00013506753376688345,-6.003001500750375e-05,0,0,0,43.62
5267879,-0.006498249124562289,0.0015157578789394693,-9.801194457228615,2.5012506253126565e-05,-0.00013506753376688345,-6.003001500750375e-05,0,0,0,43.62
5267884,-0.006498249124562289,0.0015157578789394693,-9.811194457228614,2.5012506253126565e-05,-0.00013506753376688345,-6.003001500750375e-05,0,0,0,43.75
5267889,-0.006498249124562289,0.0015157578789394693,-9.811194457228614,2.5012506253126565e-05,-0.00013506753376688345,-6.003001500750375e-05,0,0,0,43.68
5267894,-0.006498249124562289,0.0015157578789394693,-9.811194457228614,2.5012506253126565e-05,-0.00013506753376688345,-6.003001500750375e-05,0,0,0,43.75
5267899,0.0035017508754377064,0.0015157578789394693,-9.811194457228614,2.5012506253126565e-05,-0.00013506753376688345,-6.003001500750375e-05,0,0,0,43.87
5267904,0.0035017508754377064,0.0015157578789394693,-9.821194457228614,2.5012506253126565e-05,-0.00013506753376688345,-6.003001500750375e-05,0,0,0,43.62
5267909,0.0035017508754377064,0.0015157578789394693,-9.821194457228614,2.5012506253126565e-05,-0.00013506753376688345,-6.003001500750375e-05,0,0,0,43.5
5267915,0.0035017508754377064,-0.008484242121060531,-9.821194457228614,2.5012506253126565e-05,-0.00013506753376688345,-6.003001500750375e-05,0,0,0,43.56
5267919,0.0035017508754377064,0.0015157578789394693,-9.811194457228614,2.5012506253126565e-05,-0.00013506753376688345,-6.003001500750375e-05,0,0,0,43.81
5267924,0.0035017508754377064,0.0015157578789394693,-9.811194457228614,2.5012506253126565e-05,-0.00013506753376688345,-6.003001500750375e-05,0,0,0,43.75
5267929,0.0035017508754377064,0.0015157578789394693,-9.811194457228614,2.5012506253126565e-05,-0.00013506753376688345,-6.003001500750375e-05,0,0,0,43.75
5267934,0.0035017508754377064,0.011515757878939468,-9.821194457228614,2.5012506253126565e-05,-0.00013506753376688345,-6.003001500750375e-05,0,0,0,43.62
5267939,-0.006498249124562289,0.011515757878939468,-9.821194457228614,2.5012506253126565e-05,-0.00013506753376688345,-6.003001500750375e-05,0,0,0,43.56
5267944,-0.006498249124562289,0.011515757878939468,-9.821194457228614,2.5012506253126565e-05,-0.00013506753376688345,-6.003001500750375e-05,0,0,0,43.75
5267949,0.0035017508754377064,0.011515757878939468,-9.811194457228614,2.5012506253126565e-05,-0.00013506753376688345,-6.003001500750375e-05,0,0,0,43.56
5267954,-0.006498249124562289,0.011515757878939468,-9.811194457228614,2.5012506253126565e-05,-0.00013506753376688345,-6.003001500750375e-05,0,0,0,43.75
5267959,-0.006498249124562289,0.0015157578789394693,-9.801194457228615,2.5012506253126565e-05,-0.00013506753376688345,-6.003001500750375e-05,0,0,0,43.62
5267964,-0.006498249124562289,0.0015157578789394693,-9.801194457228615,2.5012506253126565e-05,-0.00013506753376688345,-6.003001500750375e-05,0,0,0,43.87
5267969,-0.006498249124562289,0.0015157578789394693,-9.801194457228615,2.5012506253126565e-05,-0.00013506753376688345,-6.003001500750375e-05,0,0,0,43.5
5267974,0.0035017508754377064,0.0015157578789394693,-9.811194457228614,2.5012506253126565e-05,-0.00013506753376688345,-6.003001500750375e-05,0,0,0,43.75
5267979,0.0035017508754377064,0.0015157578789394693,-9.811194457228614,2.5012506253126565e-05,-0.00013506753376688345,-6.003001500750375e-05,0,0,0,43.87
5267984,0.0035017508754377064,0.0015157578789394693,-9.811194457228614,2.5012506253126565e-05,-0.00013506753376688345,-6.003001500750375e-05,0,0,0,43.87
5267989,0.0035017508754377064,0.0015157578789394693,-9.811194457228614,2.5012506253126565e-05,-0.00013506753376688345,-6.003001500750375e-05,0,0,0,43.81
5267994,0.0035017508754377064,0.0015157578789394693,-9.811194457228614,2.5012506253126565e-05,-0.00013506753376688345,-6.003001500750375e-05,0,0,0,43.56
5267999,0.0035017508754377064,0.0015157578789394693,-9.811194457228614,2.5012506253126565e-05,-0.00013506753376688345,-6.003001500750375e-05,0,0,0,43.68
5268004,0.0035017508754377064,0.0015157578789394693,-9.811194457228614,2.5012506253126565e-05,-0.00013506753376688345,-6.003001500750375e-05,0,0,0,43.81
5268009,0.0035017508754377064,0.0015157578789394693,-9.811194457228614,2.5012506253126565e-05,-0.00013506753376688345,-6.003001500750375e-05,0,0,0,43.68
5268015,0.0035017508754377064,0.0015157578789394693,-9.811194457228614,2.5012506253126565e-05,-0.00013506753376688345,-6.003001500750375e-05,0,0,0,43.87
5268019,0.0035017508754377064,0.0015157578789394693,-9.811194457228614,2.5012506253126565e-05,-0.00013506753376688345,-6.003001500750375e-05,0,0,0,43.75
5268024,0.0035017508754377064,0.0015157578789394693,-9.811194457228614,2.5012506253126565e-05,-0.00013506753376688345,-6.003001500750375e-05,0,0,0,43.81
5268029,0.0035017508754377064,0.0015157578789394693,-9.811194457228614,2.5012506253126565e-05,-0.00013506753376688345,-6.003001500750375e-05,0,0,0,43.81
5268034,0.0035017508754377064,0.0015157578789394693,-9.811194457228614,2.5012506253126565e-05,-0.00013506753376688345,-6.003001500750375e-05,0,0,0,43.56
5268039,0.0035017508754377064,0.0015157578789394693,-9.811194457228614,2.5012506253126565e-05,-0.00013506753376688345,-6.003001500750375e-05,0,0,0,43.87
5268044,0.0035017508754377064,0.0015157578789394693,-9.811194457228614,2.5012506253126565e-05,-0.00013506753376688345,-6.003001500750375e-05,0,0,0,43.68
5268049,0.0035017508754377064,0.0015157578789394693,-9.811194457228614,2.5012506253126565e-05,-0.00013506753376688345,-6.003001500750375e-05,0,0,0,43.75
5268054,0.0035017508754377064,0.0015157578789394693,-9.811194457228614,2.5012506253126565e-05,-0.00013506753376688345,-6.003001500750375e-05,0,0,0,43.75
5268059,0.0035017508754377064,0.0015157578789394693,-9.811194457228614,2.5012506253126565e-05,-0.00013506753376688345,-6.003001500750375e-05,0,0,0,43.62
5268064,0.0035017508754377064,0.0015157578789394693,-9.811194457228614,2.5012506253126565e-05,-0.00013506753376688345,-6.003001500750375e-05,0,0,0,43.75
5268069,0.0035017508754377064,0.011515757878939468,-9.811194457228614,2.5012506253126565e-05,-0.00013506753376688345,-6.003001500750375e-05,0,0,0,43.56
5268074,0.0035017508754377064,0.011515757878939468,-9.811194457228614,2.5012506253126565e-05,-0.00013506753376688345,-6.003001500750375e-05,0,0,0,43.56
5268079,0.0035017508754377064,0.011515757878939468,-9.821194457228614,2.5012506253126565e-05,-0.00013506753376688345,-6.003001500750375e-05,0,0,0,43.62
5268084,0.0035017508754377064,0.0015157578789394693,-9.811194457228614,2.5012506253126565e-05,-0.00013506753376688345,-6.003001500750375e-05,0,0,0,43.62
5268089,0.0035017508754377064,0.0015157578789394693,-9.811194457228614,2.5012506253126565e-05,-0.00013506753376688345,-6.003001500750375e-05,0,0,0,43.62
5268094,0.0035017508754377064,0.0015157578789394693,-9.811194457228614,2.5012506253126565e-05,-0.00013506753376688345,-6.003001500750375e-05,0,0,0,43.62
5268099,0.0035017508754377064,0.0015157578789394693,-9.811194457228614,2.5012506253126565e-05,-0.00013506753376688345,-6.003001500750375e-05,0,0,0,43.62
5268104,0.0035017508754377064,0.0015157578789394693,-9.821194457228614,2.5012506253126565e-05,-0.00013506753376688345,-6.003001500750375e-05,0,0,0,43.75
5268109,0.013501750875437701,0.0015157578789394693,-9.811194457228614,2.5012506253126565e-05,-0.00013506753376688345,-6.003001500750375e-05,0,0,0,43.68
5268115,0.0035017508754377064,0.0015157578789394693,-9.811194457228614,2.5012506253126565e-05,-0.00013506753376688345,-6.003001500750375e-05,0,0,0,43.87
5268119,0.0035017508754377064,0.0015157578789394693,-9.801194457228615,2.5012506253126565e-05,-0.00013506753376688345,-6.003001500750375e-05,0,0,0,43.75
5268124,0.0035017508754377064,0.0015157578789394693,-9.801194457228615,2.5012506253126565e-05,-0.00013506753376688345,-6.003001500750375e-05,0,0,0,43.62
5268129,0.0035017508754377064,0.0015157578789394693,-9.801194457228615,2.5012506253126565e-05,-0.00013506753376688345,-6.003001500750375e-05,0,0,0,43.75
5268134,-0.006498249124562289,0.0015157578789394693,-9.801194457228615,2.5012506253126565e-05,-0.00013506753376688345,-6.003001500750375e-05,0,0,0,43.68
5268139,-0.006498249124562289,0.0015157578789394693,-9.801194457228615,2.5012506253126565e-05,-0.00013506753376688345,-6.003001500750375e-05,0,0,0,43.62
5268144,-0.006498249124562289,0.0015157578789394693,-9.801194457228615,2.5012506253126565e-05,-0.00013506753376688345,-6.003001500750375e-05,0,0,0,43.62
5268149,-0.006498249124562289,0.0015157578789394693,-9.801194457228615,2.5012506253126565e-05,-0.00013506753376688345,-6.003001500750375e-05,0,0,0,43.62
5268154,-0.006498249124562289,-0.008484242121060531,-9.801194457228615,2.5012506253126565e-05,-0.00013506753376688345,-6.003001500750375e-05,0,0,0,43.93
5268159,0.0035017508754377064,-0.008484242121060531,-9.801194457228615,2.5012506253126565e-05,-0.00013506753376688345,-6.003001500750375e-05,0,0,0,43.75
5268164,0.0035017508754377064,0.0015157578789394693,-9.801194457228615,2.5012506253126565e-05,-0.00013506753376688345,-6.003001500750375e-05,0,0,0,43.5
5268169,0.0035017508754377064,0.0015157578789394693,-9.801194457228615,2.5012506253126565e-05,-0.00013506753376688345,-6.003001500750375e-05,0,0,0,43.68
5268174,0.0035017508754377064,0.0015157578789394693,-9.801194457228615,2.5012506253126565e-05,-0.00013506753376688345,-6.003001500750375e-05,0,0,0,43.62
5268179,-0.006498249124562289,-0.008484242121060531,-9.801194457228615,2.5012506253126565e-05,-0.00013506753376688345,-6.003001500750375e-05,0,0,0,43.68
5268184,0.0035017508754377064,-0.008484242121060531,-9.801194457228615,2.5012506253126565e-05,-0.00013506753376688345,-6.003001500750375e-05,0,0,0,43.75
5268189,0.0035017508754377064,-0.008484242121060531,-9.801194457228615,2.5012506253126565e-05,-0.00013506753376688345,-6.003001500750375e-05,0,0,0,43.56
5268194,0.0035017508754377064,-0.008484242121060531,-9.811194457228614,2.5012506253126565e-05,-0.00013506753376688345,-6.003001500750375e-05,0,0,0,43.75
5268199,0.0035017508754377064,-0.008484242121060531,-9.811194457228614,2.5012506253126565e-05,-0.00013506753376688345,-6.003001500750375e-05,0,0,0,43.81
5268204,-0.006498249124562289,-0.008484242121060531,-9.811194457228614,2.5012506253126565e-05,-0.00013506753376688345,-6.003001500750375e-05,0,0,0,43.75
5268209,-0.006498249124562289,0.0015157578789394693,-9.811194457228614,2.5012506253126565e-05,-0.00013506753376688345,-6.003001500750375e-05,0,0,0,43.87
5268215,-0.006498249124562289,-0.008484242121060531,-9.821194457228614,2.5012506253126565e-05,-0.00013506753376688345,-6.003001500750375e-05,0,0,0,43.81
5268219,-0.006498249124562289,-0.008484242121060531,-9.821194457228614,2.5012506253126565e-05,-0.00013506753376688345,-6.003001500750375e-05,0,0,0,43.81
5268224,-0.006498249124562289,-0.008484242121060531,-9.811194457228614,2.5012506253126565e-05,-0.00013506753376688345,-6.003001500750375e-05,0,0,0,43.56
5268229,0.0035017508754377064,-0.008484242121060531,-9.811194457228614,2.5012506253126565e-05,-0.00013506753376688345,-6.003001500750375e-05,0,0,0,43.62
5268234,0.0035017508754377064,-0.008484242121060531,-9.811194457228614,2.5012506253126565e-05,-0.00013506753376688345,-6.003001500750375e-05,0,0,0,43.56
5268239,0.0035017508754377064,-0.008484242121060531,-9.811194457228614,2.5012506253126565e-05,-0.00013506753376688345,-6.003001500750375e-05,0,0,0,43.81
5268244,0.0035017508754377064,-0.008484242121060531,-9.801194457228615,2.5012506253126565e-05,-0.00013506753376688345,-6.003001500750375e-05,0,0,0,43.87
5268249,0.0035017508754377064,-0.008484242121060531,-9.801194457228615,2.5012506253126565e-05,-0.00013506753376688345,-6.003001500750375e-05,0,0,0,43.75
5268254,0.0035017508754377064,-0.008484242121060531,-9.811194457228614,2.5012506253126565e-05,-0.00013506753376688345,-6.003001500750375e-05,0,0,0,43.62
5268259,0.0035017508754377064,0.0015157578789394693,-9.801194457228615,2.5012506253126565e-05,-0.00013506753376688345,-6.003001500750375e-05,0,0,0,43.81
5268264,0.0035017508754377064,0.0015157578789394693,-9.811194457228614,2.5012506253126565e-05,-0.00013506753376688345,-6.003001500750375e-05,0,0,0,43.81
5268269,0.0035017508754377064,0.0015157578789394693,-9.811194457228614,2.5012506253126565e-05,-0.00013506753376688345,-6.003001500750375e-05,0,0,0,43.87
5268274,0.0035017508754377064,0.0015157578789394693,-9.811194457228614,2.5012506253126565e-05,-0.00013506753376688345,-6.003001500750375e-05,0,0,0,43.87
5268279,0.0035017508754377064,0.0015157578789394693,-9.811194457228614,2.5012506253126565e-05,-0.00013506753376688345,-6.003001500750375e-05,0,0,0,43.87
5268284,0.0035017508754377064,0.0015157578789394693,-9.811194457228614,2.5012506253126565e-05,-0.00013506753376688345,-6.003001500750375e-05,0,0,0,43.75
5268289,0.0035017508754377064,0.0015157578789394693,-9.821194457228614,2.5012506253126565e-05,-0.00013506753376688345,-6.003001500750375e-05,0,0,0,43.75
5268294,-0.006498249124562289,0.0015157578789394693,-9.821194457228614,2.5012506253126565e-05,-0.00013506753376688345,-6.003001500750375e-05,0,0,0,43.81
5268299,0.0035017508754377064,0.0015157578789394693,-9.811194457228614,2.5012506253126565e-05,-0.00013506753376688345,-6.003001500750375e-05,0,0,0,43.62
5268304,0.0035017508754377064,0.0015157578789394693,-9.811194457228614,2.5012506253126565e-05,-0.00013506753376688345,-6.003001500750375e-05,0,0,0,43.87
5268309,0.0035017508754377064,0.0015157578789394693,-9.811194457228614,2.5012506253126565e-05,-0.00013506753376688345,-6.003001500750375e-05,0,0,0,43.68
5268315,0.0035017508754377064,0.0015157578789394693,-9.811194457228614,2.5012506253126565e-05,-0.00013506753376688345,-6.003001500750375e-05,0,0,0,43.62
5268319,0.0035017508754377064,0.011515757878939468,-9.811194457228614,2.5012506253126565e-05,-0.00013506753376688345,-6.003001500750375e-05,0,0,0,43.87
5268324,0.0035017508754377064,0.011515757878939468,-9.811194457228614,2.5012506253126565e-05,-0.00013506753376688345,-6.003001500750375e-05,0,0,0,43.75
5268329,0.0035017508754377064,0.0015157578789394693,-9.811194457228614,2.5012506253126565e-05,-0.00013506753376688345,-6.003001500750375e-05,0,0,0,43.5
5268334,-0.006498249124562289,0.0015157578789394693,-9.811194457228614,2.5012506253126565e-05,-0.00013506753376688345,-6.003001500750375e-05,0,0,0,43.87
5268339,0.0035017508754377064,0.0015157578789394693,-9.811194457228614,2.5012506253126565e-05,-0.00013506753376688345,-6.003001500750375e-05,0,0,0,43.81
5268344,0.0035017508754377064,0.011515757878939468,-9.821194457228614,2.5012506253126565e-05,-0.00013506753376688345,-6.003001500750375e-05,0,0,0,44.06
5268349,-0.006498249124562289,0.0015157578789394693,-9.821194457228614,2.5012506253126565e-05,0.009864932466233116,-6.003001500750375e-05,0,0,0,43.87
5268354,-0.006498249124562289,0.0015157578789394693,-9.821194457228614,2.5012506253126565e-05,0.009864932466233116,-6.003001500750375e-05,0,0,0,43.87
5268359,-0.006498249124562289,0.0015157578789394693,-9.821194457228614,2.5012506253126565e-05,-0.00013506753376688345,-6.003001500750375e-05,0,0,0,43.87
5268364,-0.006498249124562289,0.0015157578789394693,-9.821194457228614,2.5012506253126565e-05,-0.00013506753376688345,-6.003001500750375e-05,0,0,0,43.81
5268369,-0.006498249124562289,0.0015157578789394693,-9.821194457228614,2.5012506253126565e-05,-0.00013506753376688345,-6.003001500750375e-05,0,0,0,43.75
5268379,0.0035017508754377064,0.0015157578789394693,-9.811194457228614,2.5012506253126565e-05,-0.00013506753376688345,-6.003001500750375e-05,0,0,0,43.81
5268379,0.0035017508754377064,0.0015157578789394693,-9.811194457228614,2.5012506253126565e-05,-0.00013506753376688345,-6.003001500750375e-05,0,0,0,43.81
5268384,0.0035017508754377064,0.0015157578789394693,-9.811194457228614,2.5012506253126565e-05,-0.00013506753376688345,-6.003001500750375e-05,0,0,0,43.81
5268389,0.0035017508754377064,0.0015157578789394693,-9.811194457228614,2.5012506253126565e-05,-0.00013506753376688345,-6.003001500750375e-05,0,0,0,43.75
5268394,0.0035017508754377064,0.0015157578789394693,-9.811194457228614,2.5012506253126565e-05,-0.00013506753376688345,-6.003001500750375e-05,0,0,0,43.75
5268399,0.0035017508754377064,0.0015157578789394693,-9.811194457228614,2.5012506253126565e-05,-0.00013506753376688345,-6.003001500750375e-05,0,0,0,43.75
5268404,-0.006498249124562289,0.0015157578789394693,-9.811194457228614,2.5012506253126565e-05,-0.00013506753376688345,-6.003001500750375e-05,0,0,0,43.62
5268409,-0.006498249124562289,0.0015157578789394693,-9.811194457228614,2.5012506253126565e-05,-0.00013506753376688345,-6.003001500750375e-05,0,0,0,43.75
5268415,-0.006498249124562289,0.0015157578789394693,-9.821194457228614,2.5012506253126565e-05,-0.00013506753376688345,-6.003001500750375e-05,0,0,0,43.93
5268419,-0.006498249124562289,0.0015157578789394693,-9.821194457228614,2.5012506253126565e-05,-0.00013506753376688345,-6.003001500750375e-05,0,0,0,43.68
5268424,-0.006498249124562289,0.0015157578789394693,-9.821194457228614,2.5012506253126565e-05,-0.00013506753376688345,0.009939969984992497,0,0,0,43.62
5268429,-0.006498249124562289,0.0015157578789394693,-9.821194457228614,2.5012506253126565e-05,-0.00013506753376688345,-6.003001500750375e-05,0,0,0,43.81
5268434,-0.006498249124562289,0.0015157578789394693,-9.811194457228614,2.5012506253126565e-05,-0.00013506753376688345,-6.003001500750375e-05,0,0,0,43.87
5268439,-0.006498249124562289,0.0015157578789394693,-9.811194457228614,2.5012506253126565e-05,-0.00013506753376688345,-6.003001500750375e-05,0,0,0,43.87
5268444,-0.006498249124562289,0.0015157578789394693,-9.811194457228614,2.5012506253126565e-05,-0.00013506753376688345,-6.003001500750375e-05,0,0,0,43.81
5268449,-0.006498249124562289,0.0015157578789394693,-9.811194457228614,2.5012506253126565e-05,-0.00013506753376688345,-6.003001500750375e-05,0,0,0,43.81
5268454,0.0035017508754377064,0.0015157578789394693,-9.811194457228614,2.5012506253126565e-05,-0.00013506753376688345,-6.003001500750375e-05,0,0,0,43.81
5268459,0.0035017508754377064,0.0015157578789394693,-9.811194457228614,2.5012506253126565e-05,-0.00013506753376688345,-6.003001500750375e-05,0,0,0,43.75
5268464,0.0035017508754377064,0.0015157578789394693,-9.811194457228614,2.5012506253126565e-05,-0.00013506753376688345,-6.003001500750375e-05,0,0,0,43.62
5268469,0.0035017508754377064,0.0015157578789394693,-9.811194457228614,2.5012506253126565e-05,-0.00013506753376688345,-6.003001500750375e-05,0,0,0,43.87
5268474,0.0035017508754377064,0.0015157578789394693,-9.821194457228614,2.5012506253126565e-05,-0.00013506753376688345,-6.003001500750375e-05,0,0,0,43.87
5268479,0.0035017508754377064,0.0015157578789394693,-9.821194457228614,2.5012506253126565e-05,-0.00013506753376688345,-6.003001500750375e-05,0,0,0,43.87
5268484,0.0035017508754377064,0.0015157578789394693,-9.821194457228614,2.5012506253126565e-05,-0.00013506753376688345,-6.003001500750375e-05,0,0,0,43.56
5268489,0.0035017508754377064,-0.008484242121060531,-9.821194457228614,2.5012506253126565e-05,-0.00013506753376688345,-6.003001500750375e-05,0,0,0,43.81
5268494,0.0035017508754377064,-0.008484242121060531,-9.821194457228614,2.5012506253126565e-05,-0.00013506753376688345,-6.003001500750375e-05,0,0,0,43.62
5268499,0.0035017508754377064,-0.008484242121060531,-9.821194457228614,2.5012506253126565e-05,-0.00013506753376688345,-6.003001500750375e-05,0,0,0,43.75
5268504,0.0035017508754377064,-0.008484242121060531,-9.821194457228614,2.5012506253126565e-05,-0.00013506753376688345,-6.003001500750375e-05,0,0,0,43.75
5268509,0.0035017508754377064,-0.008484242121060531,-9.811194457228614,2.5012506253126565e-05,-0.00013506753376688345,-6.003001500750375e-05,0,0,0,43.81
5268515,0.0035017508754377064,-0.008484242121060531,-9.811194457228614,2.5012506253126565e-05,-0.00013506753376688345,-6.003001500750375e-05,0,0,0,43.81
5268519,0.0035017508754377064,0.0015157578789394693,-9.811194457228614,2.5012506253126565e-05,-0.00013506753376688345,-6.003001500750375e-05,0,0,0,43.56
5268524,0.0035017508754377064,0.0015157578789394693,-9.811194457228614,2.5012506253126565e-05,-0.00013506753376688345,-6.003001500750375e-05,0,0,0,43.87
5268529,0.0035017508754377064,0.0015157578789394693,-9.811194457228614,2.5012506253126565e-05,-0.00013506753376688345,-6.003001500750375e-05,0,0,0,43.75
5268534,0.0035017508754377064,0.0015157578789394693,-9.811194457228614,2.5012506253126565e-05,-0.00013506753376688345,-6.003001500750375e-05,0,0,0,43.81
5268539,0.0035017508754377064,0.0015157578789394693,-9.821194457228614,2.5012506253126565e-05,-0.00013506753376688345,-6.003001500750375e-05,0,0,0,43.75
5268544,0.0035017508754377064,0.0015157578789394693,-9.821194457228614,2.5012506253126565e-05,-0.00013506753376688345,-6.003001500750375e-05,0,0,0,44.0
5268549,0.0035017508754377064,0.0015157578789394693,-9.821194457228614,2.5012506253126565e-05,-0.00013506753376688345,-6.003001500750375e-05,0,0,0,43.75
5268554,0.0035017508754377064,0.0015157578789394693,-9.811194457228614,2.5012506253126565e-05,-0.00013506753376688345,-6.003001500750375e-05,0,0,0,43.75
5268559,0.0035017508754377064,0.0015157578789394693,-9.811194457228614,2.5012506253126565e-05,-0.00013506753376688345,-6.003001500750375e-05,0,0,0,43.75
5268564,0.0035017508754377064,0.0015157578789394693,-9.811194457228614,2.5012506253126565e-05,-0.00013506753376688345,-6.003001500750375e-05,0,0,0,43.62
5268569,0.0035017508754377064,0.0015157578789394693,-9.801194457228615,2.5012506253126565e-05,-0.00013506753376688345,-6.003001500750375e-05,0,0,0,43.87
5268574,0.0035017508754377064,0.0015157578789394693,-9.801194457228615,2.5012506253126565e-05,-0.00013506753376688345,-6.003001500750375e-05,0,0,0,43.62
5268579,0.0035017508754377064,0.0015157578789394693,-9.801194457228615,2.5012506253126565e-05,-0.00013506753376688345,-6.003001500750375e-05,0,0,0,43.56
5268584,0.0035017508754377064,-0.008484242121060531,-9.811194457228614,2.5012506253126565e-05,-0.00013506753376688345,-6.003001500750375e-05,0,0,0,43.75
5268589,0.0035017508754377064,-0.008484242121060531,-9.811194457228614,2.5012506253126565e-05,-0.00013506753376688345,-6.003001500750375e-05,0,0,0,43.62
5268594,0.0035017508754377064,0.0015157578789394693,-9.811194457228614,2.5012506253126565e-05,-0.00013506753376688345,-6.003001500750375e-05,0,0,0,43.56
5268599,0.0035017508754377064,0.0015157578789394693,-9.811194457228614,2.5012506253126565e-05,-0.00013506753376688345,-6.003001500750375e-05,0,0,0,43.56
5268604,-0.006498249124562289,0.0015157578789394693,-9.811194457228614,2.5012506253126565e-05,-0.00013506753376688345,-6.003001500750375e-05,0,0,0,43.75
5268609,-0.006498249124562289,0.0015157578789394693,-9.811194457228614,2.5012506253126565e-05,-0.00013506753376688345,-6.003001500750375e-05,0,0,0,43.81
5268615,-0.006498249124562289,0.0015157578789394693,-9.801194457228615,2.5012506253126565e-05,-0.00013506753376688345,-6.003001500750375e-05,0,0,0,43.62
5268619,-0.006498249124562289,0.0015157578789394693,-9.801194457228615,2.5012506253126565e-05,-0.00013506753376688345,-6.003001500750375e-05,0,0,0,43.68
5268624,-0.006498249124562289,0.0015157578789394693,-9.811194457228614,2.5012506253126565e-05,-0.00013506753376688345,-6.003001500750375e-05,0,0,0,43.62
5268629,-0.006498249124562289,0.0015157578789394693,-9.811194457228614,2.5012506253126565e-05,-0.00013506753376688345,-6.003001500750375e-05,0,0,0,43.75
5268634,-0.006498249124562289,0.0015157578789394693,-9.811194457228614,2.5012506253126565e-05,-0.00013506753376688345,-6.003001500750375e-05,0,0,0,43.75
5268639,-0.006498249124562289,0.0015157578789394693,-9.821194457228614,2.5012506253126565e-05,-0.00013506753376688345,-6.003001500750375e-05,0,0,0,43.81
5268644,-0.006498249124562289,0.011515757878939468,-9.821194457228614,2.5012506253126565e-05,-0.00013506753376688345,-6.003001500750375e-05,0,0,0,43.75
5268649,-0.006498249124562289,0.011515757878939468,-9.811194457228614,2.5012506253126565e-05,-0.00013506753376688345,-6.003001500750375e-05,0,0,0,43.87
5268654,-0.006498249124562289,0.011515757878939468,-9.811194457228614,2.5012506253126565e-05,-0.00013506753376688345,-6.003001500750375e-05,0,0,0,43.62
5268659,-0.006498249124562289,0.011515757878939468,-9.811194457228614,2.5012506253126565e-05,-0.00013506753376688345,-6.003001500750375e-05,0,0,0,43.87
5268664,-0.006498249124562289,0.0015157578789394693,-9.811194457228614,2.5012506253126565e-05,-0.00013506753376688345,-6.003001500750375e-05,0,0,0,43.75
5268669,-0.006498249124562289,0.0015157578789394693,-9.811194457228614,2.5012506253126565e-05,-0.00013506753376688345,-6.003001500750375e-05,0,0,0,43.68
5268674,-0.006498249124562289,-0.008484242121060531,-9.811194457228614,2.5012506253126565e-05,-0.00013506753376688345,-6.003001500750375e-05,0,0,0,43.62
5268679,-0.006498249124562289,-0.008484242121060531,-9.811194457228614,2.5012506253126565e-05,-0.00013506753376688345,-6.003001500750375e-05,0,0,0,43.5
5268684,-0.006498249124562289,0.0015157578789394693,-9.821194457228614,2.5012506253126565e-05,-0.00013506753376688345,-6.003001500750375e-05,0,0,0,43.56
5268689,-0.006498249124562289,0.0015157578789394693,-9.831194457228614,2.5012506253126565e-05,-0.00013506753376688345,-6.003001500750375e-05,0,0,0,43.87
5268694,-0.006498249124562289,0.0015157578789394693,-9.831194457228614,2.5012506253126565e-05,-0.00013506753376688345,-6.003001500750375e-05,0,0,0,43.75
5268699,-0.006498249124562289,0.0015157578789394693,-9.821194457228614,2.5012506253126565e-05,-0.00013506753376688345,-6.003001500750375e-05,0,0,0,44.0
5268704,0.0035017508754377064,0.0015157578789394693,-9.811194457228614,2.5012506253126565e-05,-0.00013506753376688345,-6.003001500750375e-05,0,0,0,43.75
5268709,0.0035017508754377064,0.0015157578789394693,-9.811194457228614,2.5012506253126565e-05,-0.00013506753376688345,-6.003001500750375e-05,0,0,0,43.62
5268715,0.0035017508754377064,0.0015157578789394693,-9.811194457228614,2.5012506253126565e-05,-0.00013506753376688345,-6.003001500750375e-05,0,0,0,43.75
5268719,0.0035017508754377064,0.011515757878939468,-9.811194457228614,2.5012506253126565e-05,-0.00013506753376688345,-6.003001500750375e-05,0,0,0,43.75
5268724,0.0035017508754377064,0.011515757878939468,-9.811194457228614,2.5012506253126565e-05,-0.00013506753376688345,-6.003001500750375e-05,0,0,0,43.81
5268729,0.0035017508754377064,0.0015157578789394693,-9.811194457228614,2.5012506253126565e-05,-0.00013506753376688345,-6.003001500750375e-05,0,0,0,44.0
5268734,-0.006498249124562289,0.0015157578789394693,-9.811194457228614,2.5012506253126565e-05,-0.00013506753376688345,-6.003001500750375e-05,0,0,0,43.62
5268739,-0.006498249124562289,0.0015157578789394693,-9.811194457228614,2.5012506253126565e-05,-0.00013506753376688345,-6.003001500750375e-05,0,0,0,43.68
5268744,-0.006498249124562289,0.0015157578789394693,-9.811194457228614,2.5012506253126565e-05,-0.00013506753376688345,-6.003001500750375e-05,0,0,0,43.5
5268749,-0.006498249124562289,0.0015157578789394693,-9.811194457228614,2.5012506253126565e-05,-0.00013506753376688345,-6.003001500750375e-05,0,0,0,43.56
5268754,0.0035017508754377064,0.0015157578789394693,-9.811194457228614,2.5012506253126565e-05,-0.00013506753376688345,-6.003001500750375e-05,0,0,0,43.56
5268759,0.0035017508754377064,0.0015157578789394693,-9.811194457228614,2.5012506253126565e-05,-0.00013506753376688345,-6.003001500750375e-05,0,0,0,43.75
5268764,0.0035017508754377064,0.0015157578789394693,-9.811194457228614,2.5012506253126565e-05,-0.00013506753376688345,-6.003001500750375e-05,0,0,0,43.75
5268769,0.0035017508754377064,0.0015157578789394693,-9.811194457228614,2.5012506253126565e-05,-0.00013506753376688345,-6.003001500750375e-05,0,0,0,43.75
5268774,0.0035017508754377064,0.0015157578789394693,-9.811194457228614,2.5012506253126565e-05,-0.00013506753376688345,-6.003001500750375e-05,0,0,0,43.5
5268779,0.0035017508754377064,0.0015157578789394693,-9.811194457228614,2.5012506253126565e-05,-0.00013506753376688345,-6.003001500750375e-05,0,0,0,43.56
5268784,0.0035017508754377064,0.0015157578789394693,-9.811194457228614,2.5012506253126565e-05,-0.00013506753376688345,-6.003001500750375e-05,0,0,0,43.56
5268789,0.0035017508754377064,-0.008484242121060531,-9.811194457228614,2.5012506253126565e-05,-0.00013506753376688345,-6.003001500750375e-05,0,0,0,43.75
5268794,0.0035017508754377064,-0.008484242121060531,-9.821194457228614,2.5012506253126565e-05,-0.00013506753376688345,-6.003001500750375e-05,0,0,0,43.81
5268799,0.0035017508754377064,-0.008484242121060531,-9.821194457228614,2.5012506253126565e-05,-0.00013506753376688345,-6.003001500750375e-05,0,0,0,43.68
5268804,0.0035017508754377064,0.0015157578789394693,-9.811194457228614,2.5012506253126565e-05,-0.00013506753376688345,-6.003001500750375e-05,0,0,0,43.87
5268809,0.0035017508754377064,0.011515757878939468,-9.811194457228614,2.5012506253126565e-05,-0.00013506753376688345,-6.003001500750375e-05,0,0,0,43.56
5268815,-0.006498249124562289,0.011515757878939468,-9.811194457228614,2.5012506253126565e-05,-0.00013506753376688345,-6.003001500750375e-05,0,0,0,43.68
5268819,-0.006498249124562289,0.011515757878939468,-9.811194457228614,2.5012506253126565e-05,-0.00013506753376688345,-6.003001500750375e-05,0,0,0,43.81
5268824,-0.006498249124562289,0.011515757878939468,-9.811194457228614,2.5012506253126565e-05,-0.00013506753376688345,-6.003001500750375e-05,0,0,0,43.62
5268829,-0.006498249124562289,0.0015157578789394693,-9.811194457228614,2.5012506253126565e-05,-0.00013506753376688345,-6.003001500750375e-05,0,0,0,43.87
5268834,-0.006498249124562289,0.0015157578789394693,-9.811194457228614,2.5012506253126565e-05,-0.00013506753376688345,-6.003001500750375e-05,0,0,0,43.81
5268839,-0.006498249124562289,0.0015157578789394693,-9.811194457228614,2.5012506253126565e-05,-0.00013506753376688345,-6.003001500750375e-05,0,0,0,43.62
5268844,-0.006498249124562289,0.0015157578789394693,-9.811194457228614,2.5012506253126565e-05,-0.00013506753376688345,-6.003001500750375e-05,0,0,0,43.5
5268849,-0.006498249124562289,0.0015157578789394693,-9.811194457228614,2.5012506253126565e-05,-0.00013506753376688345,-6.003001500750375e-05,0,0,0,43.68
5268854,0.0035017508754377064,0.0015157578789394693,-9.821194457228614,2.5012506253126565e-05,-0.00013506753376688345,-6.003001500750375e-05,0,0,0,43.68
5268859,0.0035017508754377064,0.0015157578789394693,-9.811194457228614,2.5012506253126565e-05,-0.00013506753376688345,-6.003001500750375e-05,0,0,0,43.75
5268864,0.0035017508754377064,0.0015157578789394693,-9.811194457228614,2.5012506253126565e-05,-0.00013506753376688345,-6.003001500750375e-05,0,0,0,43.75
5268869,-0.006498249124562289,-0.008484242121060531,-9.801194457228615,2.5012506253126565e-05,-0.00013506753376688345,-6.003001500750375e-05,0,0,0,43.43
5268879,0.0035017508754377064,-0.008484242121060531,-9.801194457228615,2.5012506253126565e-05,-0.00013506753376688345,-6.003001500750375e-05,0,0,0,43.62
5268879,0.0035017508754377064,-0.008484242121060531,-9.801194457228615,2.5012506253126565e-05,-0.00013506753376688345,-6.003001500750375e-05,0,0,0,43.62
5268884,0.0035017508754377064,0.0015157578789394693,-9.801194457228615,2.5012506253126565e-05,-0.00013506753376688345,-6.003001500750375e-05,0,0,0,43.75
5268889,0.0035017508754377064,0.0015157578789394693,-9.801194457228615,2.5012506253126565e-05,-0.00013506753376688345,-6.003001500750375e-05,0,0,0,43.56
5268894,0.0035017508754377064,0.0015157578789394693,-9.811194457228614,2.5012506253126565e-05,-0.00013506753376688345,-6.003001500750375e-05,0,0,0,43.56
