Timestamp,Accelerometer_X,Accelerometer_Y,Accelerometer_Z,Gyroscope_X,Gyroscope_Y,Gyroscope_Z,Magnetometer_X,Magnetometer_Y,Magnetometer_Z,Abs_Pressure,Temperature
5264967314,-0.0017888354563367487,-0.007376730710402166,9.805061163931725,0.00017855951037189645,0.00045373971695361213,0.0005204935438250679,189544.015625,104933.984375,274816.28125,997.797607421875,45.74699020385742
5264974850,-0.0021389084362638117,-0.0022544043959528554,9.804818930655358,0.00022413872093592492,0.0005053163465839021,0.00039765663643083753,192407.796875,106524.9609375,274366.28125,997.8234252929688,45.74913787841797
5264977184,-0.001669760277236712,-0.0014292451442629445,9.808677496939538,0.00010240751899244917,0.0005904286506613858,0.00022061960736937108,192407.796875,106524.9609375,274366.28125,997.8234252929688,45.74913787841797
5264984543,0.0036730138159143805,-0.0005214217008501637,9.81510144713485,0.00035000999369357434,0.0004110216675819971,-0.00026562242454201696,192407.796875,106524.9609375,274366.28125,997.8234252929688,45.74913787841797
5264987596,0.0034658653235781073,0.0028696430026143444,9.819805922537682,0.0002629319914411912,0.0003084525240176732,-0.00026739126804568587,192407.796875,106524.9609375,274366.28125,997.8234252929688,45.74913787841797
5264992281,0.0003685472107279181,0.002981073886021937,9.815671744376061,0.00037863617208485213,8.227797274491951e-06,-0.00022468226996534286,192407.796875,106524.9609375,274366.28125,997.8234252929688,45.74913787841797
5264999758,-0.004813167681659472,0.008353568345174159,9.811825575857995,-0.00017106967979644704,-0.00015085536981652005,-0.00016239474678695915,192407.796875,106524.9609375,274366.28125,997.8234252929688,45.74913787841797
5265002188,-0.0037157716655385614,0.0038990152178853404,9.81271058562362,-0.0005054766498652594,-6.939019770080669e-05,3.258621983877601e-05,192407.796875,106524.9609375,274366.28125,997.8234252929688,45.74913787841797
5265009525,0.0032842201686251044,-0.004181765288248693,9.805660071402428,-0.0007361814333272474,0.000129365419319845,1.6421661364801545e-05,192407.796875,106524.9609375,274366.28125,997.8234252929688,45.74913787841797
5265012351,0.007253129551445234,-0.0033950584830195057,9.805162253409264,-0.0007439769525227444,0.0001751901134178184,-0.00010181262076184867,192407.796875,106524.9609375,274366.28125,997.8234252929688,45.74913787841797
5265017577,0.011171896526848066,-0.0033570083679110158,9.799920859366296,-0.00017192300410543847,0.00011447652539053486,-0.0003637660123622489,192407.796875,106524.9609375,274366.28125,997.8234252929688,45.74913787841797
5265024934,0.005197991201912153,0.004405609994992579,9.79869634154403,0.0005042735009773327,0.00022507230348700212,-0.00023300366627336262,192407.796875,106524.9609375,274366.28125,997.8234252929688,45.74913787841797
5265027171,0.003869075844322431,0.003027565508946742,9.801894965201257,0.0003564600573589718,0.00027811856923498233,-0.00016528141021081029,192407.796875,106524.9609375,274366.28125,997.8234252929688,45.74913787841797
5265034519,-0.0009973453783643366,0.0011546162067502391,9.809233489066003,4.6798408133226456e-05,0.0003249710287257472,1.746340387216987e-05,192407.796875,106524.9609375,274366.28125,997.8234252929688,45.74913787841797
5265037283,-0.0018020602368962885,0.0021293831168263805,9.812469306021569,-0.00021378158825983572,0.00031754514454795533,6.045476731560411e-05,192407.796875,106524.9609375,274366.28125,997.8234252929688,45.74913787841797
5265042205,-0.004955913355315936,0.0005626601277440441,9.810921492606042,-0.0004028960084689157,0.00023152008977766635,-1.2276519903026205e-05,192407.796875,106524.9609375,274366.28125,997.8234252929688,45.74913787841797
5265049771,-0.0001226323151242853,-0.001357302338019048,9.813573660879968,-0.0002624247991626458,0.00024657651626902187,-0.00046092827722714065,192407.796875,106524.9609375,274366.28125,997.8234252929688,45.74913787841797
5265052229,-0.0008955853485715509,-0.004537545412912999,9.814932646780846,-0.00034762597178642917,0.0001393908303491913,-0.0005701438552769112,192407.796875,106524.9609375,274366.28125,997.8234252929688,45.74913787841797
5265059582,-0.0004245298409116388,-0.006726742059126531,9.81356221678817,-7.813093370360601e-05,-0.000359326834973865,-0.0004925433680746217,192407.796875,106524.9609375,274366.28125,997.8234252929688,45.74913787841797
5265062206,-0.0005984710955274225,-0.0052832591236979115,9.81435567381942,-0.00019267607248922157,-0.00048771989643292947,-0.0004632299463828538,192407.796875,106524.9609375,274366.28125,997.8234252929688,45.74913787841797
5265067281,0.0004577977156984686,-0.008478552371397649,9.807370963126061,0.00028553914753855626,-0.00047395174735876246,-0.00031860751949534534,192407.796875,106524.9609375,274366.28125,997.8234252929688,45.74913787841797
5265074861,0.004428085455929029,-0.00406483587636057,9.806427779227135,0.0008460969128499432,-0.00022836524406167193,0.0001768103098747808,191559.28125,101645.9453125,276766.28125,997.7853393554688,45.74591827392578
5265077192,0.005296495327984083,-0.0031264799536615956,9.811130347281335,0.0008184117195049925,-0.00021872867475914283,0.00024801271467185797,191559.28125,101645.9453125,276766.28125,997.7853393554688,45.74591827392578
5265084534,0.008022364745174634,0.00446841093884405,9.816120924979089,0.0008277556206884487,-7.099774777608438e-05,6.862415431714835e-05,191559.28125,101645.9453125,276766.28125,997.7853393554688,45.74591827392578
5265087234,0.009605374703441846,0.008918970554932917,9.820270361929772,0.000732376227373506,0.00011346311546211617,-4.533521167286454e-05,191559.28125,101645.9453125,276766.28125,997.7853393554688,45.74591827392578
5265092235,0.010802869269882429,0.006275340646371211,9.819728674918053,0.0005968981294280542,0.00021426603668650167,-0.00018941043561608313,191559.28125,101645.9453125,276766.28125,997.7853393554688,45.74591827392578
5265099736,0.007140022287403333,-0.00218529281033579,9.817151846915124,0.0004720955202209456,-0.00019263831311556025,-0.0001870251147756797,191559.28125,101645.9453125,276766.28125,997.7853393554688,45.74591827392578
5265102167,0.004528467128311384,-0.007832177251711522,9.817599120169518,0.00015130531565217954,-0.00031947851059677525,-0.00015761578141064165,191559.28125,101645.9453125,276766.28125,997.7853393554688,45.74591827392578
5265109506,-0.0043302284979474664,-0.008725516766443883,9.812570395499108,-4.5516948463146566e-05,-0.0005320191278094284,0.00012812914757705512,191559.28125,101645.9453125,276766.28125,997.7853393554688,45.74591827392578
5265112460,-0.003483619024719012,-0.008700482815638219,9.81294423583114,-0.0001404798077565925,-0.0004410943376803629,0.0002533686925908107,191559.28125,101645.9453125,276766.28125,997.7853393554688,45.74591827392578
5265117568,-0.0016122864985120416,-0.008048452705279027,9.804282965689538,-8.981492837493586e-05,-0.00031024916208999677,0.00039013754541701855,191559.28125,101645.9453125,276766.28125,997.7853393554688,45.74591827392578
5265124984,-0.004566218187774432,-0.0056713822187334645,9.797188582449792,-0.0001103889790975796,-0.00019612402068170233,0.00029159645748040857,191559.28125,101645.9453125,276766.28125,997.7853393554688,45.74591827392578
5265127226,-0.005339469244445574,-0.007913075655832921,9.800149741202233,-0.00023840220646535325,-0.0001360884645925693,0.00024349434499345006,191559.28125,101645.9453125,276766.28125,997.7853393554688,45.74591827392578
5265134489,-0.0041166054510724664,-0.005105369061365758,9.801385703116296,0.00013317112634821516,-0.00010855071125271244,0.0002577046394599158,191559.28125,101645.9453125,276766.28125,997.7853393554688,45.74591827392578
5265137282,-0.004675711920226824,-0.0027259516419321644,9.806368651419518,1.1677695423613311e-05,-4.248562729636653e-05,0.0002258438031440157,191559.28125,101645.9453125,276766.28125,997.7853393554688,45.74591827392578
5265142255,-0.0041171865963590265,8.280548439916491e-05,9.805632414847253,0.00013236960685743672,4.9858061878956124e-05,0.00024989835184714975,191559.28125,101645.9453125,276766.28125,997.7853393554688,45.74591827392578
5265149798,9.762174848197691e-05,0.005324177175626124,9.81174737456405,-0.000576832781094809,-0.00010388734629096909,0.00023659953114292802,191559.28125,101645.9453125,276766.28125,997.7853393554688,45.74591827392578
5265152203,0.0002681804395067572,0.0033002791105359447,9.81579667571151,-0.0007681695697975652,-0.00016987644014599247,0.00016107491648472132,191559.28125,101645.9453125,276766.28125,997.7853393554688,45.74591827392578
5265159568,0.0013029021716463446,-0.0020148533286005604,9.819419684439538,-0.0008930408349407213,-0.0003370938950190179,9.503494913405957e-05,191559.28125,101645.9453125,276766.28125,997.7853393554688,45.74591827392578
5265162207,0.0013154042458879828,0.00022046986208852648,9.820022406607507,-0.0008425789838803308,-0.00029424997158067746,0.0002869758751494366,191559.28125,101645.9453125,276766.28125,997.7853393554688,45.74591827392578
5265167197,0.0003736136055338263,-0.0022901671828180897,9.81713944914901,-0.0005991384224181371,-0.00015188322979676051,0.0004958088389848846,191559.28125,101645.9453125,276766.28125,997.7853393554688,45.74591827392578
5265174887,-0.004391822447742236,0.002191550761327113,9.809458556204675,-0.0005201113363874452,0.00020065499736509772,0.0004120296795172173,193786.65625,101752.015625,271966.25,997.8214721679688,45.74323272705078
5265177191,-0.004364255299533618,0.00023553493605550646,9.810421767264245,-0.0005811528954801457,0.00037073428281863706,0.00039184611488781156,193786.65625,101752.015625,271966.25,997.8214721679688,45.74323272705078
5265184476,-0.0018672975206029535,0.004233076900109614,9.80539971831405,-0.00041271220661302376,0.0005715394788915433,0.0002981160647486824,193786.65625,101752.015625,271966.25,997.8214721679688,45.74323272705078
5265187238,0.0014280346727716803,0.004711471229657496,9.81223565581405,-0.0004884456121509271,0.000585050873973421,0.0002672371916723925,193786.65625,101752.015625,271966.25,997.8214721679688,45.74323272705078
5265192224,0.0056886342859613775,-0.0016154128016382802,9.813662352591393,-5.103293924195039e-05,0.0003679697390673824,9.997270500934901e-05,193786.65625,101752.015625,271966.25,997.8214721679688,45.74323272705078
5265199735,0.010916535327469098,-0.005856417387858068,9.819026770621178,0.0002980550561041031,-0.0001688721251645915,-7.33278869865906e-05,193786.65625,101752.015625,271966.25,997.8214721679688,45.74323272705078
5265202165,0.010074358949695814,-0.006991684705153142,9.823419394522546,0.000260527005506346,-0.00017489143758731408,-8.989713422306595e-05,193786.65625,101752.015625,271966.25,997.8214721679688,45.74323272705078
5265209485,0.002074491748844373,-0.008431144327059423,9.820062460928796,0.00029710537265044824,4.266039356870131e-05,0.00015792215673900427,193786.65625,101752.015625,271966.25,997.8214721679688,45.74323272705078
5265212527,0.0002981019711840033,-0.004327453941240941,9.823798956900475,4.840764623067063e-05,9.623776602373944e-05,0.0002938695830544013,193786.65625,101752.015625,271966.25,997.8214721679688,45.74323272705078
5265217699,-0.0038677784108770014,0.0004807856975644481,9.820347609549401,7.896396155400854e-05,0.00029195067852405153,0.00027981598361111464,193786.65625,101752.015625,271966.25,997.8214721679688,45.74323272705078
5265224918,-0.005468103518451464,0.00045391145335134386,9.818679633170007,0.0003212536848003669,0.0006300717930337556,0.0004723872403865236,193786.65625,101752.015625,271966.25,997.8214721679688,45.74323272705078
5265227195,-0.004242356350387347,-0.003626272350683843,9.820139708548425,0.00013803586071288866,0.0006093276013182618,0.0004815676362504739,193786.65625,101752.015625,271966.25,997.8214721679688,45.74323272705078
5265234498,-0.002431552340949786,-0.010473288864031469,9.820911231070397,0.0001369764085246874,0.0004051475323415503,0.00026283576118475975,193786.65625,101752.015625,271966.25,997.8214721679688,45.74323272705078
5265237246,-0.0023298742675435663,-0.00821398970498148,9.82004815581405,5.878927359289211e-05,0.0002991574279683733,0.0002783531668846983,193786.65625,101752.015625,271966.25,997.8214721679688,45.74323272705078
5265242202,-0.003569859495128405,-0.008361332386866246,9.808493437796471,0.00017628697415047047,-0.00010554745788405164,0.0003229003046890277,193786.65625,101752.015625,271966.25,997.8214721679688,45.74323272705078
5265249729,-0.004606317212547076,-0.0017562436760813344,9.807994666128991,0.00010013804594917876,-0.0007654956436687939,0.00010281457763812723,193786.65625,101752.015625,271966.25,997.8214721679688,45.74323272705078
5265252185,-0.005430142810310137,-0.0020776542724520314,9.810044112234948,-4.1572535425175904e-05,-0.0007456618488738172,-7.2472321682654e-05,193786.65625,101752.015625,271966.25,997.8214721679688,45.74323272705078
5265259561,-0.008789035906757128,0.004117771714791621,9.801767172842858,0.00031984998522956577,-0.0009653057797783844,-0.0003308092276547548,193786.65625,101752.015625,271966.25,997.8214721679688,45.74323272705078
5265262246,-0.00803437404867531,0.006919584900006617,9.802543463736413,0.0004510045854693903,-0.0010304253675946823,-0.0003525230134819147,193786.65625,101752.015625,271966.25,997.8214721679688,45.74323272705078
5265267234,-0.006718288590873492,0.005627639323338832,9.800708594351647,0.0007263978058325751,-0.000953046664313399,-0.0002669126555538249,193786.65625,101752.015625,271966.25,997.8214721679688,45.74323272705078
5265274840,-0.0013975011610639215,0.00828620764599737,9.805097403555749,0.0006986230891051395,-0.0009094061690354578,5.439011112502994e-05,195165.5,105888.5859375,271066.25,997.8029174804688,45.750213623046875
5265277199,-0.0009969952010762811,0.00708645555363592,9.809842886954186,0.0005017003003594158,-0.0007742801110232107,0.00020973611355475368,195165.5,105888.5859375,271066.25,997.8029174804688,45.750213623046875
5265284527,0.0030488712287294745,0.005513883858784999,9.812826933890221,0.00041484752901295853,-0.0003513583226101331,0.0004960720540275353,195165.5,105888.5859375,271066.25,997.8029174804688,45.750213623046875
5265287198,0.004273016521965253,0.007050581008061732,9.817003073721764,0.0002665251394354431,-0.0001585053116520725,0.0005155794202601093,195165.5,105888.5859375,271066.25,997.8029174804688,45.750213623046875
5265292226,0.002781499693428266,0.007108553975686396,9.813537421255944,0.00016851828141069693,4.320026962367372e-05,0.0005274336432357806,195165.5,105888.5859375,271066.25,997.8029174804688,45.750213623046875
5265299740,-0.003424804141486895,0.0011493188439458263,9.809742751150964,0.00032302708305350226,0.00013628833291867302,0.0007471442801197547,195165.5,105888.5859375,271066.25,997.8029174804688,45.750213623046875
5265302189,-0.005549016823734057,-0.002415031463041936,9.80936414244735,0.00019145387514426094,0.0002541479541598961,0.0007693664516573328,195165.5,105888.5859375,271066.25,997.8029174804688,45.750213623046875
5265307034,-0.00386359118458153,-0.0018492567242533314,9.805578055411218,0.00024298856979284157,0.00020030150224037023,0.0005790669816797155,195165.5,105888.5859375,271066.25,997.8029174804688,45.750213623046875
5265312431,0.001271654436622846,-0.0003178271354586232,9.809602561026452,-5.52200200182693e-05,1.396419136134462e-05,0.00025379733380577745,195165.5,105888.5859375,271066.25,997.8029174804688,45.750213623046875
5265317617,0.006258834669624555,-0.0010882544220835316,9.807928862601159,0.0001559637038589148,-0.0002967655320623748,-0.00018704443971910296,195165.5,105888.5859375,271066.25,997.8029174804688,45.750213623046875
5265324863,0.009513896474872816,-0.003572255641356145,9.811192336111901,-4.4781494667504905e-05,-2.203483129570706e-05,-0.00011260583449438928,195165.5,105888.5859375,271066.25,997.8029174804688,45.750213623046875
5265327215,0.00789502687219261,-0.00402601090087,9.813313307791589,-0.00017144302373354602,0.00013796807504539864,-7.742387277357994e-05,195165.5,105888.5859375,271066.25,997.8029174804688,45.750213623046875
5265334525,0.0006607291794168829,-0.006901920110121404,9.819166007071374,-0.0001547265111149596,0.00030366373859968697,-0.0002585390178701353,195165.5,105888.5859375,271066.25,997.8029174804688,45.750213623046875
5265337251,-0.002462531855071795,-0.003242150217428838,9.822169127493737,-0.00032616928919752407,0.00025032615555963965,-0.00020391293254033444,195165.5,105888.5859375,271066.25,997.8029174804688,45.750213623046875
5265342241,-0.003149162461723101,-0.0021227526368052113,9.821914496451257,-0.0003175014117879169,-0.00014051154833006187,-0.00010062413674131749,195165.5,105888.5859375,271066.25,997.8029174804688,45.750213623046875
5265349763,-0.004488419225181353,0.005613147944077815,9.818344893484948,-0.000683727075826128,-0.0004970773600013785,0.0004092899031256813,195165.5,105888.5859375,271066.25,997.8029174804688,45.750213623046875
5265352250,-0.002833533515895617,0.003857791155442561,9.820957961111901,-0.0008526051370573537,-0.0003954662836128704,0.00038647674920684876,195165.5,105888.5859375,271066.25,997.8029174804688,45.750213623046875
5265359506,0.0005231542086946844,0.005058243602380122,9.815509619742272,-0.0007039718749148147,2.4699488471276328e-05,0.0004587304425676841,195165.5,105888.5859375,271066.25,997.8029174804688,45.750213623046875
5265362234,0.0019871038890230536,0.005449935525521601,9.818074049979089,-0.0007459470490140216,0.000242599576062537,0.0005538357069035548,195165.5,105888.5859375,271066.25,997.8029174804688,45.750213623046875
5265367221,0.0032834006047594427,0.003411546081170405,9.805190863638757,-0.0006440515699942904,0.00023459084220511393,0.0006893247478892583,195165.5,105888.5859375,271066.25,997.8029174804688,45.750213623046875
5265379744,0.002277661631141889,0.0031761002837270152,9.801837744742272,-0.0003918171697442727,0.00027610395115906393,0.0004172996847210008,190392.53125,100001.921875,274853.78125,997.7990112304688,45.74913787841797
5265384525,-0.0011266427540433527,-0.0015709402860552418,9.800871672659753,-2.389312257592845e-05,0.00044152994703316616,0.0002623384349299151,190392.53125,100001.921875,274853.78125,997.7990112304688,45.74913787841797
5265389747,-0.003946270277465594,0.002165823906525935,9.802850546866296,6.860058229348344e-05,0.0005563208240112431,0.00041044672217867555,190392.53125,100001.921875,274853.78125,997.7990112304688,45.74913787841797
5265394568,-0.006711538364852679,0.001209698349103297,9.808964552908776,-2.85690021847682e-05,0.0008665609045913585,0.0007004057402973551,190392.53125,100001.921875,274853.78125,997.7990112304688,45.74913787841797
5265399788,-0.008753928770984423,0.00507527562962469,9.808990302115319,0.00026305688234414394,0.001004445307238973,0.0007255705419247526,190392.53125,100001.921875,274853.78125,997.7990112304688,45.74913787841797
5265404709,-0.005253154268230212,0.00545337769375738,9.81554204466903,0.00017956237016177458,0.0012297928322134682,0.000488819612308361,190392.53125,100001.921875,274853.78125,997.7990112304688,45.74913787841797
5265409544,-0.002878631880248797,0.0028336417971700084,9.811071219473718,-1.8112199628476976e-05,0.0011612009828006991,0.00024553434888548436,190392.53125,100001.921875,274853.78125,997.7990112304688,45.74913787841797
5265414980,0.0019085300660478949,0.01220367076979574,9.810300650626061,-0.00015068818001610505,0.0009095335251679786,1.7712474453218598e-05,190392.53125,100001.921875,274853.78125,997.7990112304688,45.74913787841797
5265419500,0.008545864889656293,0.011610172420605983,9.81711846831405,-0.00033372336301555204,0.0006393373467056222,-5.5424520161978584e-05,190392.53125,100001.921875,274853.78125,997.7990112304688,45.74913787841797
5265424852,0.01176748848918556,0.012404419213399256,9.81691152098739,0.00017802164248122555,0.00041154889802263604,-7.06922441004288e-05,190392.53125,100001.921875,274853.78125,997.7990112304688,45.74913787841797
5265429724,0.014823910365139234,0.0027089339791386974,9.818947615652917,-0.00017195586233002412,0.00022674709068659247,-0.00010796790628046511,190392.53125,100001.921875,274853.78125,997.7990112304688,45.74913787841797
5265434518,0.011577170858417737,-0.001291580766573583,9.812444510489343,-0.00011107152212945092,7.849998544251101e-05,-0.0003076300203083527,190392.53125,100001.921875,274853.78125,997.7990112304688,45.74913787841797
5265439698,0.01056090421441673,0.002100474864110316,9.810511412649987,-3.201995977734494e-05,-9.168035578633173e-05,-0.0005147105224587001,190392.53125,100001.921875,274853.78125,997.7990112304688,45.74913787841797
5265444411,0.008259501824413526,0.0005453300772755992,9.812033476858971,-0.00020483509988126623,2.0304053372717664e-05,-0.0004624463912314248,190392.53125,100001.921875,274853.78125,997.7990112304688,45.74913787841797
5265449745,0.005183812747036207,0.003391615778073634,9.802383246451257,-7.937355084878671e-05,-1.639424701871796e-05,-5.296780762546478e-05,190392.53125,100001.921875,274853.78125,997.7990112304688,45.74913787841797
5265454762,-0.0008714976215016962,0.0050067079363912,9.800390067129968,-0.00028887075140674877,-0.00013389499620253666,0.0002811318842013854,190392.53125,100001.921875,274853.78125,997.7990112304688,45.74913787841797
5265459475,-0.001044544806445849,-0.0030638801754862416,9.798387351065514,-0.0003554758569372194,1.084059365374522e-05,0.0001788883815770525,190392.53125,100001.921875,274853.78125,997.7990112304688,45.74913787841797
5265464715,0.004687067637478101,-0.00226081189526621,9.801996054678796,-0.0003353275661503272,0.0001688181062257059,-4.18064886453074e-05,190392.53125,100001.921875,274853.78125,997.7990112304688,45.74913787841797
5265469562,0.007859830329452741,-0.008127950400248204,9.810352149039147,-0.0001576933846955495,0.0003275202823481664,-0.0002620462331669849,190392.53125,100001.921875,274853.78125,997.7990112304688,45.74913787841797
5265474823,0.008270856509243238,-0.005882524222269689,9.815991225272057,6.546231625533384e-05,0.0005287849042127051,-0.0005286135277692672,191241.09375,107691.6953125,272866.28125,997.7903442382812,45.74860382080078
5265479765,0.0058194143271791815,-0.0008576216997057545,9.81827527525985,-0.0004083240474720793,0.0006914141984218873,-0.0007130354355304014,191241.09375,107691.6953125,272866.28125,997.7903442382812,45.74860382080078
5265484484,0.0042215553617823,-0.0041929411591440785,9.816361250906823,-0.00043186177035396266,0.0007603728143060722,-0.0007090496659493518,191241.09375,107691.6953125,272866.28125,997.7903442382812,45.74860382080078
5265489732,0.00248706764939903,0.0024949011503308666,9.811520400076745,-0.0002516024815996485,0.0004535101895947151,-0.0005247009470458586,191241.09375,107691.6953125,272866.28125,997.7903442382812,45.74860382080078
5265494547,0.002878543505703199,-0.0018729421199709523,9.812031569510339,-0.0002057992515766369,0.0001560367952827506,-0.00038579199497871814,191241.09375,107691.6953125,272866.28125,997.7903442382812,45.74860382080078
5265499736,0.0016574678516733526,-0.0013634192646891224,9.81329709532821,0.00010628855843960029,3.157878998016493e-05,-0.00026938720873840867,191241.09375,107691.6953125,272866.28125,997.7903442382812,45.74860382080078
5265504745,-0.0005992832088124872,-0.0017075913847834218,9.82100087645614,3.069148979547155e-05,6.681766424143241e-05,-1.5585800048939567e-05,191241.09375,107691.6953125,272866.28125,997.7903442382812,45.74860382080078
5265509541,-0.0017358171248090387,-0.00690440115346018,9.820434393912194,3.12131759564085e-05,-5.2330143467508986e-05,0.00015685282380036296,191241.09375,107691.6953125,272866.28125,997.7903442382812,45.74860382080078
5265515100,-0.0021315621637952448,-0.0028304236830622304,9.817281546622155,3.038165144870998e-06,-0.00018884043786393924,0.00025907380005992236,191241.09375,107691.6953125,272866.28125,997.7903442382812,45.74860382080078
5265519488,-0.005217316975559008,-0.003957689076796209,9.816462340384362,-0.0001439986063779639,-0.00013231075829545481,0.0002992220103060383,191241.09375,107691.6953125,272866.28125,997.7903442382812,45.74860382080078
5265524898,-0.0035696285271299005,-0.0033254626096636403,9.810664000540612,0.00016520222734824476,-4.149542767273708e-05,0.0004408131932159442,191241.09375,107691.6953125,272866.28125,997.7903442382812,45.74860382080078
5265529717,-0.0006954329514157892,-0.0034788328112513173,9.810400786429284,2.8672674524290575e-06,-9.507994511815234e-05,9.465956792882862e-05,191241.09375,107691.6953125,272866.28125,997.7903442382812,45.74860382080078
5265534422,0.00018750555280326597,-0.0076375010312945,9.80787831786239,0.00013029370339053404,-7.564234076718314e-05,-0.00014786163263306735,191241.09375,107691.6953125,272866.28125,997.7903442382812,45.74860382080078
5265539702,-0.001887116064990771,-0.0019485506118685353,9.810607733755944,-3.031141941038239e-05,-1.753225894503144e-07,5.0556379954286236e-05,191241.09375,107691.6953125,272866.28125,997.7903442382812,45.74860382080078
5265544516,-0.0021681817674291254,-0.0027756619156748402,9.814068617850182,-0.0003318893560354905,8.37897812510051e-05,0.00016080011811754884,191241.09375,107691.6953125,272866.28125,997.7903442382812,45.74860382080078
5265549826,-0.0030358614825856806,-0.001554988592997228,9.81292039397323,-0.0002567000757118063,0.0001788348006578304,0.000302292930080511,191241.09375,107691.6953125,272866.28125,997.7903442382812,45.74860382080078
5265554793,-0.0074421348476064325,-0.0005876499117762196,9.81656629088485,-0.00027097241954480576,-1.5644736072965696e-05,0.00034818885580352725,191241.09375,107691.6953125,272866.28125,997.7903442382812,45.74860382080078
5265559577,-0.00444698654648186,-0.0023795890511423695,9.81624776366317,-0.0002915704809275763,0.00014503745367100017,0.00040135427809036555,191241.09375,107691.6953125,272866.28125,997.7903442382812,45.74860382080078
5265564670,0.00018593348029731505,0.0050083992181867015,9.815314116507409,-0.0003783308621642487,0.0003662428778391473,0.00039089180028713526,191241.09375,107691.6953125,272866.28125,997.7903442382812,45.74860382080078
5265569533,0.0021218252873766302,6.929013119634508e-05,9.8157728338536,-0.0005843818490539985,0.0004532244481872909,0.0003229531572451371,191241.09375,107691.6953125,272866.28125,997.7903442382812,45.74860382080078
5265574807,-0.00045574032303215273,0.00429620566950735,9.807303252249596,-0.00018175081467789876,0.00024497126175837146,0.00012377160566575112,194847.328125,107055.3125,275266.28125,997.8079223632812,45.74699020385742
5265579777,-0.002667556931937945,0.0076111999450772655,9.806796851187585,-0.00011396875024375784,0.00019305839557481484,9.589572402364792e-05,194847.328125,107055.3125,275266.28125,997.8079223632812,45.74699020385742
5265584549,0.0006309343076097845,0.005063153534993495,9.806401076346276,1.4446488334114672e-05,0.0002484324748132054,0.00016031519009447874,194847.328125,107055.3125,275266.28125,997.8079223632812,45.74699020385742
5265589721,0.005643334755932081,0.009438685804471339,9.809409918814538,0.000276103615787078,0.00022052644524072783,0.00024314626318118753,194847.328125,107055.3125,275266.28125,997.8079223632812,45.74699020385742
5265594499,0.005998362371956098,0.00637653443203863,9.814340415030358,0.0003538666441308027,0.000301145005686783,0.00012036215013540568,194847.328125,107055.3125,275266.28125,997.8079223632812,45.74699020385742
5265599791,0.0034437147474634527,0.005112491279706324,9.812574210196374,0.0005758181668205811,0.00029680696732092436,-5.901133443512736e-05,194847.328125,107055.3125,275266.28125,997.8079223632812,45.74699020385742
5265604688,0.0011659232473719,0.003807991474732722,9.818198027640221,0.00029815084044811503,0.00023352208406712414,-0.0002318335758736801,194847.328125,107055.3125,275266.28125,997.8079223632812,45.74699020385742
5265609502,-0.004184979429210436,-0.009236321121588384,9.81700974944198,-6.898106775780487e-05,0.00014667266693712698,-0.00024558481562235175,194847.328125,107055.3125,275266.28125,997.8079223632812,45.74699020385742
5265615040,-0.005218903949226153,-0.009940199822321569,9.815978827505944,-0.00030330299168427753,4.71830124063559e-05,-0.00019657352857575534,194847.328125,107055.3125,275266.28125,997.8079223632812,45.74699020385742
5265619455,-0.0023488285445821405,-0.01512540158642832,9.811162772208093,-0.0004138322966319816,0.0001332963572843142,-0.00020442521816403387,194847.328125,107055.3125,275266.28125,997.8079223632812,45.74699020385742
5265624971,0.0017207828855860113,-0.010510251194372808,9.806591811209557,-7.901624312226939e-05,4.5611376457861826e-05,-4.6041212392083984e-05,194847.328125,107055.3125,275266.28125,997.8079223632812,45.74699020385742
5265629731,0.0050881621933328985,-0.0014084729255587208,9.805908026724694,-2.119016252992022e-05,0.00021805570465793388,4.557019217826743e-06,194847.328125,107055.3125,275266.28125,997.8079223632812,45.74699020385742
5265634519,0.0030032140708315253,-0.0037945586146265614,9.803232016592858,-4.4253813117493867e-05,0.0002826390671309924,-1.3450047681551986e-06,194847.328125,107055.3125,275266.28125,997.8079223632812,45.74699020385742
5265639715,0.0024108556604730963,0.0009161678253262889,9.803764166861413,4.2937115635040225e-05,0.00030334326449909675,2.6225519484795947e-05,194847.328125,107055.3125,275266.28125,997.8079223632812,45.74699020385742
5265644487,0.00458774394754051,-0.0037966075242907155,9.805443587332604,-1.2470945963387369e-05,0.0003650621718173057,-0.00015631262829811094,194847.328125,107055.3125,275266.28125,997.8079223632812,45.74699020385742
5265649779,0.006673951218162763,-0.002314195305243169,9.802985968619225,-3.2116962844257234e-05,0.0002486671135323264,-0.0003614134042272788,194847.328125,107055.3125,275266.28125,997.8079223632812,45.74699020385742
5265654732,0.006185982892547834,0.002258151501283015,9.812610449820397,-4.499706673969793e-05,0.00018678334051791133,-0.0005665211623472722,194847.328125,107055.3125,275266.28125,997.8079223632812,45.74699020385742
5265659544,0.0029438999986994147,-0.0034926014841944325,9.81515199187362,0.0003296393350900775,9.631847094559597e-05,-0.0005758940955111037,194847.328125,107055.3125,275266.28125,997.8079223632812,45.74699020385742
5265664668,0.0003884700632440924,0.002470418542489375,9.820223631888268,0.00043564729449270946,2.6318185313618943e-05,-0.000362265055066019,194847.328125,107055.3125,275266.28125,997.8079223632812,45.74699020385742
5265669517,0.0008262065744745611,-0.0014603140653521168,9.821326079398034,0.000271671958129345,3.9164034000612065e-05,-0.0001186687735589665,194847.328125,107055.3125,275266.28125,997.8079223632812,45.74699020385742
5265674753,-0.00019812904831291445,0.002294160157307948,9.81360227110946,0.0005038559628736852,-9.869464086087866e-05,-0.00010055588825889645,193468.453125,101645.9453125,268516.28125,997.7994995117188,45.74699020385742
5265679752,0.0006187973118173956,0.003077916532620753,9.818572821646569,0.0005458929971645279,-8.288584761040731e-05,8.67282471335711e-06,193468.453125,101645.9453125,268516.28125,997.7994995117188,45.74699020385742
5265684518,-0.00038442336555839784,0.004191226988896693,9.809959235220788,0.0006953971914334847,0.00021825665933128,-0.00016538152738758145,193468.453125,101645.9453125,268516.28125,997.7994995117188,45.74699020385742
5265689749,0.0017871750092851996,0.009827628463372554,9.80476552489364,0.0007070011505710585,0.00023848620801280738,-0.00013326702208542047,193468.453125,101645.9453125,268516.28125,997.7994995117188,45.74699020385742
5265694425,0.0030835834837305426,0.0017188784776776683,9.804816069632409,0.0006175922625551624,0.00015978535409366266,-0.0004666295720944625,193468.453125,101645.9453125,268516.28125,997.7994995117188,45.74699020385742
5265699814,0.0011314792132723211,-0.0023830982746035206,9.803278746634362,0.0007041621592214955,-1.9458250114552525e-06,-0.0004215942611899671,193468.453125,101645.9453125,268516.28125,997.7994995117188,45.74699020385742
5265704755,-0.0016262190842282892,-0.006556704908743535,9.81374818327987,0.0003350695459665889,-0.0001881902582915358,-0.00027181918301903425,193468.453125,101645.9453125,268516.28125,997.7994995117188,45.74699020385742
5265709475,-0.003966662516559374,-0.013202034205332433,9.814739050894616,0.00030808827969293763,-7.36961385207109e-05,-2.146384247862516e-05,193468.453125,101645.9453125,268516.28125,997.7994995117188,45.74699020385742
5265715124,-0.0037671955728185297,-0.006102472812071477,9.814838233023522,0.00011045165765962285,-0.00016514855199212654,0.0002023013072339374,193468.453125,101645.9453125,268516.28125,997.7994995117188,45.74699020385742
5265719495,-0.0015060635709416986,0.0008718964754193675,9.819446387320397,7.51769420311479e-05,-9.491708008291645e-05,0.00021613162208996,193468.453125,101645.9453125,268516.28125,997.7994995117188,45.74699020385742
5265724920,0.0033194241619455694,0.008730217546090449,9.816622557669518,0.00023181820679736976,3.2354756307802364e-05,0.00020533968892595949,193468.453125,101645.9453125,268516.28125,997.7994995117188,45.74699020385742
5265729771,0.005432520577942121,0.016240678459271754,9.820847334891198,5.259186027968955e-05,-1.6219827762790754e-05,3.273761796481194e-05,193468.453125,101645.9453125,268516.28125,997.7994995117188,45.74699020385742
5265734506,0.0034700525498735785,0.015034772187337245,9.817191901236413,0.00021753112187424396,-0.00017054952443296535,-8.527830124877077e-06,193468.453125,101645.9453125,268516.28125,997.7994995117188,45.74699020385742
5265739697,-0.004014942278827441,0.018867678671941127,9.812197508841393,0.00014214587454615814,-0.00015541497962268515,0.00024017004727102103,193468.453125,101645.9453125,268516.28125,997.7994995117188,45.74699020385742
5265744517,-0.007897007694209826,0.01606627526865896,9.811770262747643,-0.0004009687528160708,-1.992719010169132e-05,0.00023884483345500411,193468.453125,101645.9453125,268516.28125,997.7994995117188,45.74699020385742
5265749739,-0.008600059380496752,0.017588905721768702,9.808441939383385,-0.00010082444177543092,-0.0001379709294503413,8.70340151031989e-05,193468.453125,101645.9453125,268516.28125,997.7994995117188,45.74699020385742
5265754722,-0.0062874587678563715,0.014279566436871852,9.812269034415124,-0.0001855073624902712,-7.862565801198108e-05,-3.172829781942783e-05,193468.453125,101645.9453125,268516.28125,997.7994995117188,45.74699020385742
5265759517,-0.0033124940895688654,0.004513740271195735,9.808368506461022,-4.8929081545894025e-05,-3.696413589360638e-05,9.500683483383836e-05,193468.453125,101645.9453125,268516.28125,997.7994995117188,45.74699020385742
5265764669,-0.0009092124604833246,0.0031410453020184886,9.804001631766198,-0.0004561695223820703,-4.2910659636356666e-05,0.00031962059403485836,193468.453125,101645.9453125,268516.28125,997.7994995117188,45.74699020385742
5265769479,-0.002989466717208636,-0.0033143016399294484,9.80645066741073,-0.0007318208646175759,8.609957765137331e-05,0.00030680285964808645,193468.453125,101645.9453125,268516.28125,997.7994995117188,45.74699020385742
5265774821,-0.005491349329913867,-0.0030416625441462147,9.811918082266686,-0.0004564002575499313,-2.417501057217343e-05,0.0003687913409685272,190710.734375,102706.6171875,274066.25,997.7933349609375,45.74323272705078
5265779775,-0.002711962392295611,0.003610498934850062,9.817440810232995,-0.00011093514157993066,5.792669141945915e-05,0.00027480535174436154,190710.734375,102706.6171875,274066.25,997.7933349609375,45.74323272705078
5265784527,-0.0022434102797162653,0.0023489517270177257,9.81676274779403,0.00040264529698460084,0.00018758096009540857,0.00027202320017568054,190710.734375,102706.6171875,274066.25,997.7933349609375,45.74323272705078
5265789700,-0.0005520241760861994,0.006121337145432795,9.816917243033288,0.00047373243606115413,0.0004518626799602203,0.00031098746659881653,190710.734375,102706.6171875,274066.25,997.7933349609375,45.74323272705078
5265794427,0.000871610412632215,0.002242095500096644,9.820992293387292,0.00016684821630759817,0.0006769448798643567,0.0004254616211419481,190710.734375,102706.6171875,274066.25,997.7933349609375,45.74323272705078
5265799760,0.0014053998089182257,0.003952912717923487,9.814107718497155,3.129559800426197e-05,0.0006716917839860685,0.000395372626024254,190710.734375,102706.6171875,274066.25,997.7933349609375,45.74323272705078
5265804703,0.0012185019946443915,0.00782699111090597,9.812212767630456,-0.0001201461546735214,0.0005520449474482007,0.0001452147840773243,190710.734375,102706.6171875,274066.25,997.7933349609375,45.74323272705078
5265809526,-0.0014543416404378534,0.003785125642880763,9.809327902823327,5.895566019161326e-05,0.0005014009064091511,6.929045741162481e-05,190710.734375,102706.6171875,274066.25,997.7933349609375,45.74323272705078
5265815075,-0.0017288582825315119,0.010060921043023432,9.814898314505456,0.000118645826572801,0.0004245104344356947,0.00032949837588421287,190710.734375,102706.6171875,274066.25,997.7933349609375,45.74323272705078
5265819552,-0.0027819382452619196,0.006674319237336482,9.818534674673913,-8.429401904878485e-05,0.0005714542046683051,0.00035891029949016156,190710.734375,102706.6171875,274066.25,997.7933349609375,45.74323272705078
5265824892,-0.006117488672698748,0.005164958268269862,9.813437285452721,5.375639288003565e-06,0.0006284308317611136,0.0003295097845857519,190710.734375,102706.6171875,274066.25,997.7933349609375,45.74323272705078
5265829769,-0.006663198997939837,0.0016041246353238475,9.81749516966903,-0.00033048224404056835,0.0006036924303537376,7.324980071461977e-05,190710.734375,102706.6171875,274066.25,997.7933349609375,45.74323272705078
5265834486,-0.007649640967811358,-0.0055895077885538685,9.818273367911218,-0.00025785433362772035,0.0004861676996136226,0.0001177961818193573,190710.734375,102706.6171875,274066.25,997.7933349609375,45.74323272705078
5265839696,-0.0058928760194432855,-0.007043093711271917,9.817835631399987,-0.00021461896366973686,0.0005715291179279007,0.0003167151004327017,190710.734375,102706.6171875,274066.25,997.7933349609375,45.74323272705078
5265844518,-0.0016383262776982904,-0.012045584887400304,9.81557923796737,-7.374233800520468e-05,0.0005610383803052969,0.0005222944888537306,190710.734375,102706.6171875,274066.25,997.7933349609375,45.74323272705078
5265849754,0.003836621115242231,-0.011416465312376653,9.808768095999596,0.00011866864397587907,0.00026730326751411447,0.0005212575775822181,190710.734375,102706.6171875,274066.25,997.7933349609375,45.74323272705078
5265854738,0.004135001966987836,-0.008910499781504308,9.811920943289635,-8.75514351365435e-06,0.00024880324669928776,0.00045730749808899345,190710.734375,102706.6171875,274066.25,997.7933349609375,45.74323272705078
5265859548,-0.0016236113810193659,-0.010460540920630132,9.81264668944442,-7.633601316784787e-05,0.00023514815145452993,0.00038017553708232226,190710.734375,102706.6171875,274066.25,997.7933349609375,45.74323272705078
5265864691,-0.0030101644301068903,-0.0022177996934801686,9.813248457938073,-0.00012811038877417612,2.2726568908444807e-05,0.0003045617482875961,190710.734375,102706.6171875,274066.25,997.7933349609375,45.74323272705078
5265869543,-0.0030924188398969293,-0.0018573778571039784,9.812714400320885,-0.000165090356036772,-0.00014359434246736093,0.0002658471927297789,190710.734375,102706.6171875,274066.25,997.7933349609375,45.74323272705078
5265879736,-0.010556768109763873,0.003369129925832118,9.815912070303796,-2.4241466322665094e-05,-0.000280744455472552,0.0003135442381044406,193998.796875,108115.984375,277066.28125,997.8117065429688,45.742156982421875
5265879794,-0.010556768109763873,0.003369129925832118,9.815912070303796,-2.4241466322665094e-05,-0.000280744455472552,0.0003135442381044406,193998.796875,108115.984375,277066.28125,997.8117065429688,45.742156982421875
5265884556,-0.0066883894109380365,-0.0025802778901011098,9.81569081786239,0.00021305867440231797,-0.00011703919265138431,0.0003230507132848281,193998.796875,108115.984375,277066.28125,997.8117065429688,45.742156982421875
5265889755,-0.001020688047374499,0.0017473173438161266,9.814683737784264,0.00020288856640389842,7.981899010963008e-06,0.0002978363769379932,193998.796875,108115.984375,277066.28125,997.8117065429688,45.742156982421875
5265894472,0.0018171263432848334,-0.002995677560702001,9.816731276541589,-3.3368514865388154e-05,5.074663092663066e-05,0.0002054659995501417,193998.796875,108115.984375,277066.28125,997.8117065429688,45.742156982421875
5265899715,0.0015753028488504767,-0.00536202666176859,9.812329115897057,6.092495735983373e-06,-4.150244169587715e-05,8.278223651177468e-05,193998.796875,108115.984375,277066.28125,997.8117065429688,45.742156982421875
5265904725,0.0009173495269167303,-0.006020397216215764,9.816918196707604,-0.000125911856317644,-1.5408161068193463e-06,0.00017321424058354678,193998.796875,108115.984375,277066.28125,997.8117065429688,45.742156982421875
5265909488,0.0004604128694879889,-0.010227702826395665,9.818167510062096,0.00025944647123095767,-1.453608385937734e-05,7.566652458808603e-05,193998.796875,108115.984375,277066.28125,997.8117065429688,45.742156982421875
5265915139,-0.00015806727644325502,-0.006325714558497106,9.818964781790612,0.0006015285488537205,1.1824710576809213e-05,8.884438977292957e-05,193998.796875,108115.984375,277066.28125,997.8117065429688,45.742156982421875
5265919491,-0.0023044305348050714,-0.003472976654902135,9.819907965689538,0.0006924465286864592,0.00012470102117212044,-8.085274055884002e-05,193998.796875,108115.984375,277066.28125,997.8117065429688,45.742156982421875
5265924898,-0.0028174775147092462,-0.0029668587149530995,9.815046134024499,0.0006530824047366781,0.0001751697989441596,-0.00018250872415774284,193998.796875,108115.984375,277066.28125,997.8117065429688,45.742156982421875
5265929713,-0.005501556625331652,-0.006380178302660619,9.818645300894616,0.0005077220866077272,0.0003797403103583634,-0.0001762278556107056,193998.796875,108115.984375,277066.28125,997.8117065429688,45.742156982421875
5265934516,-0.007635082533324969,-0.011722184986010228,9.814726653128503,0.0006721191038231058,0.00029666230604951814,-0.00024305217119217632,193998.796875,108115.984375,277066.28125,997.8117065429688,45.742156982421875
5265939718,-0.003581422796214831,-0.005809866160288488,9.812627615958093,0.0006301855773052825,0.00035930497212965527,-0.0001814338323874843,193998.796875,108115.984375,277066.28125,997.8117065429688,45.742156982421875
5265944531,-0.002117152740920794,-0.0056627767981440175,9.816307845145104,0.00013626546015429032,0.000436081608108259,-0.00021097384195127307,193998.796875,108115.984375,277066.28125,997.8117065429688,45.742156982421875
5265949783,-0.0006173061632764459,0.00010617795573171496,9.815560164481042,6.330569331465942e-05,0.00018034205165739657,-0.00014725487597570537,193998.796875,108115.984375,277066.28125,997.8117065429688,45.742156982421875
5265954758,-0.00022704475160957582,0.0023246255813687694,9.819857420950768,-0.0001916542078980552,-0.00027412735037224813,1.2660224108912367e-05,193998.796875,108115.984375,277066.28125,997.8117065429688,45.742156982421875
5265959538,-0.006051260461772692,-0.0017198177875429738,9.814530196219323,-0.0001817756111414479,-0.0004946726851137213,0.00019437179400301756,193998.796875,108115.984375,277066.28125,997.8117065429688,45.742156982421875
5265964659,-0.006174627175296557,0.0007187870441525829,9.816729369192956,-0.0002942191041221218,-0.0007508887804085247,0.0005199026196514744,193998.796875,108115.984375,277066.28125,997.8117065429688,45.742156982421875
5265969558,-0.006734381844962847,-0.0033176171482950795,9.81981164458358,-0.0002660471783166127,-0.0006962137424358956,0.0004587456929748434,193998.796875,108115.984375,277066.28125,997.8117065429688,45.742156982421875
5265974846,-0.0010806279682767511,-0.0002518969477564442,9.81521302702987,-2.3697661250581025e-05,-0.0005773546883808307,0.0002580380529416281,189650.078125,104403.6484375,275416.28125,997.8107299804688,45.74161911010742
5265979787,0.0005336967802393316,0.0016288829146474254,9.813945593863366,4.8369753043415965e-05,-0.0005855099891284339,-8.652728900597213e-05,189650.078125,104403.6484375,275416.28125,997.8107299804688,45.74161911010742
5265984469,0.00016739643577216856,-0.004722118646040593,9.810202422171471,0.000290556117673886,-0.0006356137466588847,-0.00020394576166108964,189650.078125,104403.6484375,275416.28125,997.8107299804688,45.74161911010742
5265989697,0.0005360362625467657,-0.0024950059951693165,9.811440291434167,0.00041233640686540586,-0.000581159082890474,-0.00020706708926991342,189650.078125,104403.6484375,275416.28125,997.8107299804688,45.74161911010742
5265994409,0.00023056245807288878,-0.00473060485734049,9.815322699576257,-1.4523551814009427e-05,-0.0004147329029599063,0.00017242878640718045,189650.078125,104403.6484375,275416.28125,997.8107299804688,45.74161911010742
5265999762,-0.0024432050490033747,-0.003693953424826299,9.812037291556237,0.00011855621587882471,-0.0001722340541398011,0.000639014120331921,189650.078125,104403.6484375,275416.28125,997.8107299804688,45.74161911010742
5266004748,-0.005590024819339526,0.0014933196006863964,9.817181410818932,9.495200529626292e-05,5.521208984126823e-05,0.0005875226921652931,189650.078125,104403.6484375,275416.28125,997.8107299804688,45.74161911010742
5266009528,-0.004377748300994647,0.00185770514594015,9.818676772147057,0.00010405806997722668,0.00014961586455164032,0.0005065607252781767,189650.078125,104403.6484375,275416.28125,997.8107299804688,45.74161911010742
5266015142,-0.005074317982162249,0.009836479753121699,9.822431387930749,0.0001513121696042521,0.00010024786640705095,0.0004653718202625889,189650.078125,104403.6484375,275416.28125,997.8107299804688,45.74161911010742
5266019542,-0.0039491611027372,0.0027811971603482616,9.819510283499596,0.00020036655942375493,2.4004983765087292e-05,0.0003204769451422173,189650.078125,104403.6484375,275416.28125,997.8107299804688,45.74161911010742
5266024840,-0.0021085026168477655,0.0010442209540456188,9.80781442168319,0.0002205339241335327,-0.0002190289680817954,6.503344013071837e-05,189650.078125,104403.6484375,275416.28125,997.8107299804688,45.74161911010742
5266029770,-9.384327169777162e-05,0.0018816364108174694,9.806077780753014,-0.00015244907817405927,-2.3367612107642725e-05,-9.364294272199987e-05,189650.078125,104403.6484375,275416.28125,997.8107299804688,45.74161911010742
5266034555,0.0011877087450373053,-0.0016918483079821217,9.80656987670028,-1.9946381231521247e-05,0.00014236844324321972,0.00013849150820351424,189650.078125,104403.6484375,275416.28125,997.8107299804688,45.74161911010742
5266039729,0.0013733399606096625,0.0019168329535573375,9.808246436148522,3.743176333854915e-06,0.00015893512934261487,0.0001489914717403728,189650.078125,104403.6484375,275416.28125,997.8107299804688,45.74161911010742
5266044492,-0.0009139435791623712,-0.005217738717928563,9.809750380545495,8.017549580826146e-05,0.00011202889324912356,-0.00020355713821300088,189650.078125,104403.6484375,275416.28125,997.8107299804688,45.74161911010742
5266049753,-0.0016745211982381464,0.0017337349353879344,9.806730093985436,0.0004088028089462472,7.814660673310535e-05,-0.00038704005454019425,189650.078125,104403.6484375,275416.28125,997.8107299804688,45.74161911010742
5266054759,0.0004335609770166754,0.00656118962155279,9.812372031241296,0.00023117064656970744,-2.783432248698993e-05,-0.0005142632511542623,189650.078125,104403.6484375,275416.28125,997.8107299804688,45.74161911010742
5266059539,0.006782819101845014,0.009080283075436915,9.813382926016686,0.00030541032893223875,-0.00019287312281968518,-0.0006138247048347701,189650.078125,104403.6484375,275416.28125,997.8107299804688,45.74161911010742
5266064680,0.014370691547428358,0.009488798409566249,9.81518632414901,0.0002077831030909596,-0.0004013373411232464,-0.0004096595515711677,189650.078125,104403.6484375,275416.28125,997.8107299804688,45.74161911010742
5266069528,0.013989363381897199,-0.00010346648110452772,9.816878142386315,9.043056516374183e-05,-0.0002448042516568534,-0.0002549117783764821,189650.078125,104403.6484375,275416.28125,997.8107299804688,45.74161911010742
5266074875,0.007825542757545698,0.003738626569375361,9.814163985281823,0.0004434055607852219,-4.881917377653046e-05,-0.00027839059510552106,195377.640625,103555.1328125,277966.28125,997.8192138671875,45.747528076171875
5266079718,0.0008569700217592596,0.009323648840054835,9.81216126921737,0.00015263164996566904,0.0002669972261849467,-0.0004563004116625969,195377.640625,103555.1328125,277966.28125,997.8192138671875,45.747528076171875
5266084488,-0.0018633859657895685,0.0061782372294515026,9.808604064017175,0.00017839497914236692,0.00041793651214383097,-0.0006478085928229128,195377.640625,103555.1328125,277966.28125,997.8192138671875,45.747528076171875
5266089726,-0.002975467076267016,0.010381683438882197,9.812003912955163,0.00036027061460471434,0.00038668473896385656,-0.00047353543084864287,195377.640625,103555.1328125,277966.28125,997.8192138671875,45.747528076171875
5266094522,-0.0044520976447713495,0.004062920540437068,9.81799680235946,0.00015745697774390412,0.0001975241018720113,-4.049250890784679e-05,195377.640625,103555.1328125,277966.28125,997.8192138671875,45.747528076171875
5266099715,-0.006523113181556475,0.003233343094453181,9.815357985525964,0.0001776519001431456,0.00026158535799758063,0.00028578966122768106,195377.640625,103555.1328125,277966.28125,997.8192138671875,45.747528076171875
5266104758,-0.006296429266895068,0.0031587702332585704,9.818056883841393,-5.545980647740233e-05,0.00034684704112286234,0.0003992099660699743,195377.640625,103555.1328125,277966.28125,997.8192138671875,45.747528076171875
5266109553,-0.004168901076282275,-0.0015063363016993153,9.81463986876571,-0.00019721493126427102,0.0002760044087829443,0.0003094498530281264,195377.640625,103555.1328125,277966.28125,997.8192138671875,45.747528076171875
5266115002,-0.0016975583934438349,0.004061363369092311,9.809676947623132,-0.00025130335243021417,0.0002527931090064954,0.0002649083031592447,195377.640625,103555.1328125,277966.28125,997.8192138671875,45.747528076171875
5266119567,-0.002774271597827685,-0.0005353542865664113,9.809153380423425,-0.00041921650526647735,0.00023694900917170124,0.00048057601053915204,195377.640625,103555.1328125,277966.28125,997.8192138671875,45.747528076171875
5266124971,-0.0034339460038793207,-0.001165397733584081,9.805548491507409,-6.971273805548715e-05,0.00030951633996145354,0.0004816165306856412,195377.640625,103555.1328125,277966.28125,997.8192138671875,45.747528076171875
5266129756,0.001452420423065412,-0.0019619318546206105,9.811191382437585,-0.00016975636944708693,0.0005370045680813633,0.0006760174288665432,195377.640625,103555.1328125,277966.28125,997.8192138671875,45.747528076171875
5266134538,0.0038326276040422796,-0.009401455789938604,9.812502684622643,-6.865219447364378e-05,0.00044296739977133946,0.0007033249709074873,195377.640625,103555.1328125,277966.28125,997.8192138671875,45.747528076171875
5266139731,0.005161125729118574,-0.00393329587592188,9.80871945860946,9.207287976450008e-05,0.00036255490592728855,0.00030145514721698346,195377.640625,103555.1328125,277966.28125,997.8192138671875,45.747528076171875
5266144446,0.001779493460689771,-0.005763948232069646,9.810381712942956,-0.0002701518079412477,0.00019178885011050405,0.0001541892994446236,195377.640625,103555.1328125,277966.28125,997.8192138671875,45.747528076171875
5266149726,-0.00021607749697090395,-0.004715211957827245,9.805215659170983,-0.00018188335352179873,-5.952469766790493e-05,5.2467919538684506e-05,195377.640625,103555.1328125,277966.28125,997.8192138671875,45.747528076171875
5266154738,-0.00013674371477485903,-0.00563503828658167,9.80735284331405,-0.0005483054975194232,-0.00022304954584407134,0.0001306653135707158,195377.640625,103555.1328125,277966.28125,997.8192138671875,45.747528076171875
5266159543,-0.0019633504056584955,-0.009001978010073339,9.805332961111901,-0.000650245039738466,-0.0001423395599210493,0.00022077496361634912,195377.640625,103555.1328125,277966.28125,997.8192138671875,45.747528076171875
5266164675,0.0008983505463945746,-0.006014384597674047,9.80419236662948,-0.0007362903980684774,9.106185350382255e-05,-2.8874609035484176e-05,195377.640625,103555.1328125,277966.28125,997.8192138671875,45.747528076171875
5266169518,-0.00027139805790306337,-0.008270584315195714,9.808212103873132,-0.000725817210055639,0.00011301071096958147,-0.00010009686264493285,195377.640625,103555.1328125,277966.28125,997.8192138671875,45.747528076171875
5266174791,0.001553644011055219,-0.00643815872086588,9.807268919974206,-0.00012172593969454336,5.6185016341521606e-05,-0.00019298942095883904,202165.859375,111828.2734375,277216.25,997.8109741210938,45.74269485473633
5266179789,0.0052780178881037115,-0.0029982480110079396,9.807733359366296,-6.055946696152258e-05,-2.4521443499110488e-06,2.886686672172727e-05,202165.859375,111828.2734375,277216.25,997.8109741210938,45.74269485473633
5266184479,0.003374141225849378,-0.003596939414873754,9.806558432608483,-0.00012253773283747303,0.00010359049954266773,0.00041761109570688786,202165.859375,111828.2734375,277216.25,997.8109741210938,45.74269485473633
5266189675,-0.002386349668468249,0.001422919064626063,9.804941000967858,-0.0001579896907934295,-4.494725838022752e-05,0.0007519353526895422,202165.859375,111828.2734375,277216.25,997.8109741210938,45.74269485473633
5266194507,-0.004143136968578112,-0.0008239003719240773,9.81116086485946,-0.0001806107594312476,-0.0003554438601219885,0.0009312771140848774,202165.859375,111828.2734375,277216.25,997.8109741210938,45.74269485473633
5266199741,-0.006832751860584033,0.0005457920132726085,9.811677756338952,0.0002108836141850492,-0.0007432239956194393,0.0009045041512017626,202165.859375,111828.2734375,277216.25,997.8109741210938,45.74269485473633
5266204695,-0.003983441224063647,-0.000778541237250005,9.816624465018151,0.0003053558356476873,-0.0007689750648075573,0.000595302844538309,202165.859375,111828.2734375,277216.25,997.8109741210938,45.74269485473633
5266209479,0.004125465223823774,-0.0059603231848627675,9.818024458914635,0.0004004794917854173,-0.0005714928276808791,0.0003658090132539648,202165.859375,111828.2734375,277216.25,997.8109741210938,45.74269485473633
5266215129,0.009333376357589948,-0.001500785619154607,9.821847739249108,0.00045193261931116414,-0.00034569425154196544,0.00037358998053423347,202165.859375,111828.2734375,277216.25,997.8109741210938,45.74269485473633
5266219547,0.009524006912742841,-0.003822945326700841,9.825271430045007,0.0002569209244974349,-0.0002896927773924403,0.00030679732992029967,202165.859375,111828.2734375,277216.25,997.8109741210938,45.74269485473633
5266224973,0.007354822526012647,-0.0004696029127985585,9.817945303946374,0.00017035255760119018,-0.0005520565330022804,0.00010951649130038204,202165.859375,111828.2734375,277216.25,997.8109741210938,45.74269485473633
5266229733,0.007595290014778364,0.00029697242365774035,9.814977469473718,-0.00020786937793319392,-0.000636160433010184,-0.00013907649589055,202165.859375,111828.2734375,277216.25,997.8109741210938,45.74269485473633
5266234523,0.011168461809192884,-0.0034049454034716237,9.813051047354577,-0.00028032761301447916,-0.0006525784858474366,-0.0003927595975092125,202165.859375,111828.2734375,277216.25,997.8109741210938,45.74269485473633
5266239726,0.009717289874588239,-0.001771822840109502,9.818767371207116,-4.023247865562606e-05,-0.0004785701760062806,-0.00041463738342099605,202165.859375,111828.2734375,277216.25,997.8109741210938,45.74269485473633
5266244480,0.0027158228254663824,-0.00489806410683695,9.823226752310632,4.738218731644285e-05,-0.00016908109066727085,-0.0003956957083410096,202165.859375,111828.2734375,277216.25,997.8109741210938,45.74269485473633
5266249746,3.5267839466321393e-05,-0.0034109058679491627,9.819272818594811,0.00032154770988553484,8.115892594495343e-05,-0.0001441145144617629,202165.859375,111828.2734375,277216.25,997.8109741210938,45.74269485473633
5266254730,-0.0019281613134992243,-0.004623495310679113,9.817992033987878,0.0001803549547766028,0.0002728119295846114,4.159554338730158e-05,202165.859375,111828.2734375,277216.25,997.8109741210938,45.74269485473633
5266259500,0.001657929787670362,-0.008997068077459966,9.812461676627038,0.0002395368336728001,0.00040424453506992684,7.443618925935807e-05,202165.859375,111828.2734375,277216.25,997.8109741210938,45.74269485473633
5266264646,0.006070923576389539,-0.002444871038332616,9.807306113272546,2.478838896776271e-05,0.00048118279553299324,6.591546081654014e-05,202165.859375,111828.2734375,277216.25,997.8109741210938,45.74269485473633
5266269519,0.012251463303600538,-0.0028745460213572133,9.807505431204675,-0.000252117386568089,0.000661240569365225,-6.542575829444463e-08,202165.859375,111828.2734375,277216.25,997.8109741210938,45.74269485473633
5266274817,0.016577285299335706,-3.525641573969007e-05,9.805886092215417,-9.86788491864996e-05,0.0008260379534242816,7.745239383257212e-05,189756.140625,102176.265625,275866.28125,997.7973022460938,45.74376678466797
5266279772,0.010058004925285566,0.0027235669194310558,9.813778700857995,-3.5202783779923795e-05,0.0007636330544976659,0.00029126799164987387,189756.140625,102176.265625,275866.28125,997.7973022460938,45.74376678466797
5266284506,0.006767046222721326,-0.0034534784854799855,9.81718713286483,0.00026382832302614535,0.0005492198677295961,0.0004358511065383929,189756.140625,102176.265625,275866.28125,997.7973022460938,45.74376678466797
5266289716,0.004295703539882886,0.0002820712624638927,9.817310156851647,0.0004947588767244173,0.0004698287655394666,0.0005245936914598125,189756.140625,102176.265625,275866.28125,997.7973022460938,45.74376678466797
5266294526,0.00046278215411781065,-0.005915172666445409,9.820648016959069,0.0005268640979046626,0.000469032077284544,0.0003659953941842097,189756.140625,102176.265625,275866.28125,997.7973022460938,45.74376678466797
5266299746,-0.00755650871034981,-0.005191959709063207,9.814667525320885,0.0005708953703141464,0.00025394803631051,0.00014640763367242398,189756.140625,102176.265625,275866.28125,997.7973022460938,45.74376678466797
5266304689,-0.008056763043369067,-0.005126029521361028,9.817201437979577,0.00042814726648783964,6.189051671234445e-05,-6.691250053518234e-05,189756.140625,102176.265625,275866.28125,997.7973022460938,45.74376678466797
5266309506,-0.00798566960331322,-0.010913834244146978,9.814106764822839,0.0004752492258411525,-3.142516312175229e-06,-0.0001684643215248805,189756.140625,102176.265625,275866.28125,997.7973022460938,45.74376678466797
5266315053,-0.004641998043025744,-0.010138131946459447,9.807419600516198,0.0005801099922827138,5.9164011667496726e-05,-0.00018906785442777691,189756.140625,102176.265625,275866.28125,997.7973022460938,45.74376678466797
5266319502,-0.006534736087287676,-0.013444304734602605,9.805503668814538,0.0005497397377474858,0.0003259888824452788,-0.000336794808737978,189756.140625,102176.265625,275866.28125,997.7973022460938,45.74376678466797
5266324923,-0.004091973831619036,-0.007011890679732,9.801067175894616,0.0007481927040352179,0.0004517494078520827,-0.000279493484760679,189756.140625,102176.265625,275866.28125,997.7973022460938,45.74376678466797
5266329779,-0.0013666557573926569,-0.00021357116116586805,9.807540717154382,0.00042814470535075945,0.00021572835864780025,-0.00033381968422145365,189756.140625,102176.265625,275866.28125,997.7973022460938,45.74376678466797
5266334412,0.0014647585845339178,-0.0014421570004374135,9.811112227469323,0.00034185884024181125,0.00036789677576442735,-0.00032760357169718264,189756.140625,102176.265625,275866.28125,997.7973022460938,45.74376678466797
5266339704,0.0029936773276674628,0.00428259345875677,9.815505805045007,0.00022113509285544698,0.0006735707272803553,-0.00017301921651051162,189756.140625,102176.265625,275866.28125,997.7973022460938,45.74376678466797
5266344554,0.0029642326331484198,0.000720239907368983,9.818845572501061,0.00011278396587284935,0.0007964702661177285,-2.705160330333529e-05,189756.140625,102176.265625,275866.28125,997.7973022460938,45.74376678466797
5266349752,0.00451966054204582,0.005607440799340571,9.811444106131432,2.7792719178150417e-05,0.0006354980567032613,3.7612858812280316e-05,189756.140625,102176.265625,275866.28125,997.7973022460938,45.74376678466797
5266354761,0.00714380718234657,0.008706584304437007,9.8141277456578,-0.0002649245271605747,0.0005512316700099178,0.00019604345981679143,189756.140625,102176.265625,275866.28125,997.7973022460938,45.74376678466797
5266359554,0.006151240835224378,0.003266803651913966,9.813256087332604,-9.232044803512561e-05,0.00040802044420551063,0.0002744430672628361,189756.140625,102176.265625,275866.28125,997.7973022460938,45.74376678466797
5266364659,-9.837322470070131e-05,0.004701636463269557,9.808855834036706,2.2701615220184447e-05,0.00029193852039887823,0.00027018296497590126,189756.140625,102176.265625,275866.28125,997.7973022460938,45.74376678466797
5266369554,-0.00013134949442268617,-0.0011465626658350575,9.80546838286483,-6.305270480525958e-05,0.0003804480354795374,0.00017438980250335516,189756.140625,102176.265625,275866.28125,997.7973022460938,45.74376678466797
5266379710,0.002830025324856031,0.0009581890998929393,9.809602561026452,0.0004590813640824212,0.0002143718363861695,0.0001627029265528101,186255.984375,105252.171875,271366.28125,997.79638671875,45.74376678466797
5266379781,0.002830025324856031,0.0009581890998929393,9.809602561026452,0.0004590813640824212,0.0002143718363861695,0.0001627029265528101,186255.984375,105252.171875,271366.28125,997.79638671875,45.74376678466797
5266384536,0.00594606674674629,-0.002934709459677373,9.80858403685653,0.0005924859596269829,5.3719878246090576e-05,-0.00014279727509529112,186255.984375,105252.171875,271366.28125,997.79638671875,45.74376678466797
5266389697,0.009273704657589185,-0.0001699331106096852,9.806370558768151,0.00036269013972186205,2.6069929639823005e-05,-0.000358773555837616,186255.984375,105252.171875,271366.28125,997.79638671875,45.74376678466797
5266394498,0.0102228639221537,-0.005675234168902074,9.808440985709069,-0.00020821341431302297,9.956350438577609e-05,-0.0003533627463020828,186255.984375,105252.171875,271366.28125,997.79638671875,45.74376678466797
5266399721,0.012446750471626508,-0.005213007599249517,9.804936232596276,-0.0002173999510851996,0.00022786308434141354,-0.000212113053186841,186255.984375,105252.171875,271366.28125,997.79638671875,45.74376678466797
5266404738,0.015196051964794385,-0.0017292055190950978,9.811701598196862,-0.0006140614696924882,0.00023163587936713846,-4.6426139653704744e-05,186255.984375,105252.171875,271366.28125,997.79638671875,45.74376678466797
5266409514,0.009310607383285749,-0.0025089907349497426,9.810297789603112,-0.000918939402341594,0.00029997699514516406,-5.066650954358993e-05,186255.984375,105252.171875,271366.28125,997.79638671875,45.74376678466797
5266415117,0.005243707964454877,0.00284855785952505,9.803155722647546,-0.0008321264013794558,0.0005841248482959487,-6.955990449569803e-06,186255.984375,105252.171875,271366.28125,997.79638671875,45.74376678466797
5266419511,-0.0007865684532773615,-0.0015932622255236256,9.803423705130456,-0.0005750022665744023,0.0005646138149807371,4.7541397741951365e-05,186255.984375,105252.171875,271366.28125,997.79638671875,45.74376678466797
5266424904,-0.002272184421981585,-0.0006510469020754445,9.8027113104161,-1.8322998672475098e-05,0.00022814388537361772,-5.1715935462198835e-05,186255.984375,105252.171875,271366.28125,997.79638671875,45.74376678466797
5266429730,-0.004547047843898547,0.0022246387897580516,9.803717436819909,6.0279142329717995e-05,2.9342451647869513e-05,-9.208155132182656e-05,186255.984375,105252.171875,271366.28125,997.79638671875,45.74376678466797
5266434537,-0.006462480356658709,-0.0060134383739382374,9.804357352286218,0.000455600618719372,-7.137586474137826e-05,-0.0002733133445708525,186255.984375,105252.171875,271366.28125,997.79638671875,45.74376678466797
5266439701,-0.007630567481483233,-0.0037679600418955433,9.804266753226159,0.0005325951077828808,-5.6633057489045694e-05,-0.00033703319821324913,186255.984375,105252.171875,271366.28125,997.79638671875,45.74376678466797
5266444505,-0.009075324466193926,-0.011085361510649358,9.808910193472741,0.00035473916241598037,-5.79558556871347e-05,-0.0004743500179592964,186255.984375,105252.171875,271366.28125,997.79638671875,45.74376678466797
5266449757,-0.008104208340610278,-0.009280965000525151,9.804715933829186,0.00034150020829100815,0.00010447153069825397,-0.00042146236263033716,186255.984375,105252.171875,271366.28125,997.79638671875,45.74376678466797
5266454777,-0.005860823621715319,-0.003446094960108434,9.807572188406823,-7.942919737261999e-05,0.0005615841062301912,-0.00032124624738753555,186255.984375,105252.171875,271366.28125,997.79638671875,45.74376678466797
5266459539,-0.004001829256976855,0.0010229867993443859,9.810002150565026,-0.00031582386700039077,0.0007904410583926506,-0.0001360579630108994,186255.984375,105252.171875,271366.28125,997.79638671875,45.74376678466797
5266464667,-0.0035708280706060053,0.005648113518819178,9.814279379874108,-0.0002860713703704374,0.000540646432249821,6.348203134439172e-05,186255.984375,105252.171875,271366.28125,997.79638671875,45.74376678466797
5266469570,-5.489163633705385e-05,0.0021964085398763072,9.820674719839928,-0.0005276605789696174,0.000139419614037513,-4.518049571015654e-05,186255.984375,105252.171875,271366.28125,997.79638671875,45.74376678466797
5266474816,0.004610587427650678,0.0024755370913594615,9.816326918631432,-0.0003358250670281546,-0.00021182512975948377,-7.145482266605614e-05,190498.609375,103342.9921875,278116.28125,997.8048706054688,45.74000930786133
5266479775,0.007669132719074476,0.0007271689473241222,9.818358244925378,-0.0004944206867513554,6.897630989832358e-05,5.480856599933686e-05,190498.609375,103342.9921875,278116.28125,997.8048706054688,45.74000930786133
5266484540,0.008311313161884534,-0.0007037076057345021,9.81781369689071,-0.0005086812144291894,0.00014627924135701285,0.00011429324478558483,190498.609375,103342.9921875,278116.28125,997.8048706054688,45.74000930786133
5266489734,0.008603450427089918,0.0010376793442815196,9.820739569693444,-0.0004332330264297621,0.00027428900718795156,7.953145193822998e-06,190498.609375,103342.9921875,278116.28125,997.8048706054688,45.74000930786133
5266494478,0.004872870216404188,-0.001432515949144994,9.825499358206628,-0.0006237483886217074,0.00020621229375527726,-7.446040746800285e-06,190498.609375,103342.9921875,278116.28125,997.8048706054688,45.74000930786133
5266499751,0.005793724725280988,-0.0022283944190889943,9.820403876334069,-5.237797276650834e-05,7.81387341469668e-05,0.00023150263552270116,190498.609375,103342.9921875,278116.28125,997.8048706054688,45.74000930786133
5266504730,0.0010148850775110602,-0.0012068006099611867,9.817071738272546,2.3180053089062692e-05,-1.2049860038780406e-05,0.0005220607268875021,190498.609375,103342.9921875,278116.28125,997.8048706054688,45.74000930786133
5266509494,-0.004144820799793017,2.1420150861109488e-05,9.80875379088485,0.0001689709842174938,-3.500733985284789e-05,0.0004123334652995247,190498.609375,103342.9921875,278116.28125,997.8048706054688,45.74000930786133
5266515130,-0.004227201869453204,0.006218977004155482,9.805500807791589,0.00019378450261127857,-0.00013712004986310823,0.00028908048954508485,190498.609375,103342.9921875,278116.28125,997.8048706054688,45.74000930786133
5266519500,-0.004935692479575884,0.0042163130937665355,9.807276549368737,0.00014093693053281587,3.97548126550533e-05,7.937714655599775e-05,190498.609375,103342.9921875,278116.28125,997.8048706054688,45.74000930786133
5266524908,-0.004664401938880694,0.006656311184033717,9.808783354788659,0.00041659288572544885,0.0003189426213560069,-6.932358139238935e-06,190498.609375,103342.9921875,278116.28125,997.8048706054688,45.74000930786133
5266529726,-0.003876696755851519,0.008929706841573085,9.81474572661483,0.0002474465781268822,0.0004128204225474179,-8.724792895191131e-05,190498.609375,103342.9921875,278116.28125,997.8048706054688,45.74000930786133
5266534490,-0.006668190886939776,0.0034731176792233837,9.816296401053307,0.00033021597655887437,0.0005356033787159391,-0.00023494946106620846,190498.609375,103342.9921875,278116.28125,997.8048706054688,45.74000930786133
5266539744,-0.00951157086130501,0.005951277643308009,9.813593688040612,4.816409185777427e-06,0.00043778413853423224,-0.0005293930374882628,190498.609375,103342.9921875,278116.28125,997.8048706054688,45.74000930786133
5266544542,-0.007259945800269854,0.0007888672052472484,9.81628495696151,-0.0003980402089801924,0.0006728871365105875,-0.0006144655639054698,190498.609375,103342.9921875,278116.28125,997.8048706054688,45.74000930786133
5266549771,-0.003702725698913348,0.0004674268065541637,9.81026631835067,-0.0004063685028960304,0.0005816924374578662,-0.00048525251657520203,190498.609375,103342.9921875,278116.28125,997.8048706054688,45.74000930786133
5266554762,0.003327664504085767,-0.002845317393675481,9.815069975882409,-0.0007794056274143355,0.0002902591875447684,-0.00028877175680645524,190498.609375,103342.9921875,278116.28125,997.8048706054688,45.74000930786133
5266559524,0.007453252146278608,-0.005113505095377599,9.81333428862655,-0.0006342799007107811,1.7045442995629475e-05,-0.0003222054659836438,190498.609375,103342.9921875,278116.28125,997.8048706054688,45.74000930786133
5266564676,0.008827951321636426,0.0022933256922810924,9.813890280753014,-0.0004334205133055644,4.4948711342192456e-05,-7.611696526692031e-05,190498.609375,103342.9921875,278116.28125,997.8048706054688,45.74000930786133
5266569515,0.005905028948818433,0.0008693856297582042,9.81541711333358,-0.0004506903188449638,0.00016774381108397172,0.0001362667531957406,190498.609375,103342.9921875,278116.28125,997.8048706054688,45.74000930786133
5266574802,0.005360525617634046,-0.0009655135573298085,9.809140028982995,-4.952934804906416e-05,0.00020176006253158228,0.0003015223770653385,191099.671875,100738.484375,276916.28125,997.8038940429688,45.73839569091797
5266579780,0.0038945419288027167,-0.0009073692263514149,9.813255133658288,-0.0001166037528456496,0.0002875850093680925,0.0004961157097732204,191099.671875,100738.484375,276916.28125,997.8038940429688,45.73839569091797
5266584537,0.0015269932842600226,-0.0029781165422350514,9.810837569266198,0.00016161743579131273,0.0001454004075406261,0.0003712808244181353,191099.671875,100738.484375,276916.28125,997.8038940429688,45.73839569091797
5266589758,0.00018381751540778868,0.0005498227773755443,9.8131511831578,6.524760274613929e-05,-2.4526322909616664e-05,0.00017697474651686134,191099.671875,100738.484375,276916.28125,997.8038940429688,45.73839569091797
5266594479,-0.0007452624344480158,-0.0006829651893526661,9.814454855948327,-0.00030696262374122906,0.00012085358209723161,0.00016544986248663845,191099.671875,100738.484375,276916.28125,997.8038940429688,45.73839569091797
5266599738,-0.0005976217293393732,-0.002430215746298467,9.815743269949792,-0.0003093906399009125,0.00020652632408590542,0.0002193961405446309,191099.671875,100738.484375,276916.28125,997.8038940429688,45.73839569091797
5266604742,-0.003516386678184283,-0.0006914364994913685,9.817493262320397,-0.0003834278741997974,0.00030613494552588925,0.00010380084824464502,191099.671875,100738.484375,276916.28125,997.8038940429688,45.73839569091797
5266609473,-0.001482072701419604,-0.005103215843573247,9.817025961905358,-0.0002597307157849269,0.00016309576928896384,-0.0001484392272523117,191099.671875,100738.484375,276916.28125,997.8038940429688,45.73839569091797
5266615095,-0.0003133671784055353,0.0038825792370885265,9.813008132010339,-0.0001575294428185867,8.452957151738481e-05,-0.00015241591643825887,191099.671875,100738.484375,276916.28125,997.8038940429688,45.73839569091797
5266619533,-0.0026334630751264215,0.004473648697003688,9.814545455008385,-0.0002570692286973195,1.3732059209621713e-05,0.0001222004644823748,191099.671875,100738.484375,276916.28125,997.8038940429688,45.73839569091797
5266624987,-0.003550920119251025,0.006828255683049525,9.808555426627038,-2.6476465878759502e-05,0.00011078054264934288,0.00014681066351658883,191099.671875,100738.484375,276916.28125,997.8038940429688,45.73839569091797
5266629712,-0.004069614639247668,0.005070730775460566,9.811557593375085,-0.00010844487232690024,0.00016444292739314513,0.00013780506525836172,191099.671875,100738.484375,276916.28125,997.8038940429688,45.73839569091797
5266634454,-0.002833459010089648,0.0018023845850079906,9.808296980887292,-0.00014144378482898044,-2.8131773667268304e-06,4.666956339678945e-05,191099.671875,100738.484375,276916.28125,997.8038940429688,45.73839569091797
5266639699,-0.004110592832530749,0.00530406060801443,9.805574240713952,1.9048735251898886e-05,-0.00028474821122082396,-7.388723350413857e-05,191099.671875,100738.484375,276916.28125,997.8038940429688,45.73839569091797
5266644546,-0.004380847742522967,0.00044384571896489977,9.805629553824303,3.5032937288532974e-05,-0.0003664251428069405,-0.00034737749991290985,191099.671875,100738.484375,276916.28125,997.8038940429688,45.73839569091797
5266649766,-0.005767221977676165,0.003849193185433711,9.803045096426843,0.00010994309732622188,-0.0005161569581338994,-0.00022330554236941753,191099.671875,100738.484375,276916.28125,997.8038940429688,45.73839569091797
5266654712,-0.005204256107772601,0.008340052991971339,9.81151658537948,-0.0001129435678159194,-0.0005402208200627796,-0.0001755711276764494,191099.671875,100738.484375,276916.28125,997.8038940429688,45.73839569091797
5266659556,-0.004920366635288012,0.00876492235051092,9.813631835013268,-5.338467426200676e-05,-0.00033543363790678306,-0.00017190081451372026,191099.671875,100738.484375,276916.28125,997.8038940429688,45.73839569091797
5266664665,-0.00236842357155205,0.012241832643613185,9.814645590811608,-9.120312288006115e-05,0.00013236210977473782,-2.8923270640007835e-05,191099.671875,100738.484375,276916.28125,997.8038940429688,45.73839569091797
5266669506,-0.0007473709487569452,0.009534835547074641,9.816903891592858,-0.00017005226809134054,0.0005272725673187666,4.9866560964800734e-05,191099.671875,100738.484375,276916.28125,997.8038940429688,45.73839569091797
5266674784,-0.00030935131546379335,0.006460860103234614,9.810226264029382,-9.78300068673985e-05,0.0003945118067115687,0.0002405640549277443,195271.578125,100054.9453125,270316.28125,997.7890625,45.739471435546875
5266679795,0.0027976600027429938,0.003282829850777949,9.813377203970788,-0.00039892246249665785,0.0001585989218931787,0.0006515422716056484,195271.578125,100054.9453125,270316.28125,997.7890625,45.739471435546875
5266684505,0.006851915786300886,-0.005471974879637395,9.814997496634362,-0.0002650698716898756,0.0002499963800567344,0.0006687667333771962,195271.578125,100054.9453125,270316.28125,997.7890625,45.739471435546875
5266689700,0.006356481978927839,-0.002389110893145238,9.81546765807235,-0.00010185445543912518,0.00021658170478466453,0.0004456705061038512,195271.578125,100054.9453125,270316.28125,997.7890625,45.739471435546875
5266694477,0.004936349163089979,-0.009201444953814183,9.815301718741296,-0.00016620590585817861,0.0003998095042100318,6.346922565899076e-05,195271.578125,100054.9453125,270316.28125,997.7890625,45.739471435546875
5266699776,0.0010017720556604742,-0.009892665118113195,9.80765515807235,-2.5778148570780634e-05,0.0006319333322374292,-0.00019039824872561513,195271.578125,100054.9453125,270316.28125,997.7890625,45.739471435546875
5266704694,0.0006871489382135748,-0.004235737294092809,9.80792600157821,-0.00030425567647044825,0.0008105603617644079,-0.00017715973115809975,195271.578125,100054.9453125,270316.28125,997.7890625,45.739471435546875
5266709473,-0.0007241251372945429,-0.003990434378519689,9.802845778494714,-0.00041482002243002224,0.0005892163306037106,-0.00013623747543715654,195271.578125,100054.9453125,270316.28125,997.7890625,45.739471435546875
5266715073,-0.00022964500423790224,0.004935018449887599,9.802440466910241,-0.00030923522544627356,0.0004460275656804584,1.7716080201345867e-06,195271.578125,100054.9453125,270316.28125,997.7890625,45.739471435546875
5266719515,0.0027340022421228766,0.0032874864636510265,9.805001082449792,-0.0003531866078411536,0.00030757745005238356,8.474802250929493e-06,195271.578125,100054.9453125,270316.28125,997.7890625,45.739471435546875
5266724869,0.005022485325371015,0.006561919778451289,9.801857771902917,-0.00016671475722988415,5.871777718701886e-05,-0.00019171540078059552,195271.578125,100054.9453125,270316.28125,997.7890625,45.739471435546875
5266729760,0.004666615793739545,0.005444228380784358,9.809699835806725,-0.0002783941873495774,-3.891886556240244e-05,-0.0005881331529799361,195271.578125,100054.9453125,270316.28125,997.7890625,45.739471435546875
5266734564,0.005889360377823102,-0.0030669200123697865,9.809254469900964,-1.668980812256503e-05,-0.0002355441112974517,-0.0008798993661748689,195271.578125,100054.9453125,270316.28125,997.7890625,45.739471435546875
5266739727,0.004073326060806501,-0.0004500078858286488,9.811326804190514,0.0003967009123733891,-0.00016437357519472463,-0.0008186005292209309,195271.578125,100054.9453125,270316.28125,997.7890625,45.739471435546875
5266744474,0.0037651625967371344,0.00016967180357869982,9.817699255972741,0.00047208764763480705,-1.7815920961879042e-06,-0.0006978509339951423,195271.578125,100054.9453125,270316.28125,997.7890625,45.739471435546875
5266749735,0.0048546833491670965,-0.0015025141538530934,9.81371098998153,0.0005256997700634105,-4.372806981856449e-05,-0.00044794481107783286,195271.578125,100054.9453125,270316.28125,997.7890625,45.739471435546875
5266754745,0.006025378177200544,-0.00230147716416422,9.814540686636803,0.0002736167745332654,-3.2989494008801726e-06,-0.00010710241657034276,195271.578125,100054.9453125,270316.28125,997.7890625,45.739471435546875
5266759481,0.0029930216765749335,-0.009188309580221807,9.809724631338952,0.000564297793884079,-0.00012168905343579574,0.0002420431115915555,195271.578125,100054.9453125,270316.28125,997.7890625,45.739471435546875
5266764677,-0.003224398424590838,-0.0009577053488642323,9.810227217703698,0.0005565255577529473,-0.00012392434403019471,0.0003438176350919086,195271.578125,100054.9453125,270316.28125,997.7890625,45.739471435546875
5266769548,-0.0055067124271047235,-0.002849512070551549,9.813505950003503,0.00017542676678557602,-6.627102377543671e-05,0.00039025041007152976,195271.578125,100054.9453125,270316.28125,997.7890625,45.739471435546875
5266774805,-0.007090638806785357,0.0005627942381947887,9.812135520010827,6.658629163565767e-05,0.00011077713750117944,0.00022343505372009458,192832.0625,103767.2578125,270166.25,997.8304443359375,45.74161911010742
5266779732,-0.009737785389388812,-0.0013142081798464406,9.816419425040124,-0.00016857658747186231,0.0004716131068328537,0.00017368001828617634,192832.0625,103767.2578125,270166.25,997.8304443359375,45.74161911010742
5266784447,-0.007013957431281817,-0.00883032408370081,9.817036452322839,-1.5868236092601894e-05,0.000649965658134795,6.198533775932373e-05,192832.0625,103767.2578125,270166.25,997.8304443359375,45.74161911010742
5266789776,-0.007460656990970385,-0.005255595117941533,9.816096129446862,5.334147308884841e-05,0.0005306780938320004,-1.128067942780071e-07,192832.0625,103767.2578125,270166.25,997.8304443359375,45.74161911010742
5266794479,-0.0048460843467366815,-0.005947530537977849,9.820367636710046,-0.00016481689644580054,0.0004036932503134154,-0.00011991857935027001,192832.0625,103767.2578125,270166.25,997.8304443359375,45.74161911010742
5266799700,-0.0024410667323720575,-0.0006034078897387135,9.814728560477135,-9.597417201449442e-05,0.00012020877218154745,-0.00012694922077753363,192832.0625,103767.2578125,270166.25,997.8304443359375,45.74161911010742
5266804693,-0.005510802795852435,0.0006868538557141673,9.816812338858483,-0.00034743522528161573,4.7934502412579224e-05,-0.0002129867792809826,192832.0625,103767.2578125,270166.25,997.8304443359375,45.74161911010742
5266809508,-0.005105550816024554,-0.00342907783402506,9.819185080557702,-0.0001225512079109745,7.232679103515312e-06,-0.0003841811852744293,192832.0625,103767.2578125,270166.25,997.8304443359375,45.74161911010742
5266815113,-0.004868905475105059,0.003695107728108729,9.817072691946862,-4.8486761530612587e-05,2.9775894994861648e-05,-0.0003811779464576837,192832.0625,103767.2578125,270166.25,997.8304443359375,45.74161911010742
5266819438,-0.0054543795489919306,0.0038802397547810924,9.817907156973718,-0.00027918045643319654,0.00037864078947158085,-0.0002993074307432842,192832.0625,103767.2578125,270166.25,997.8304443359375,45.74161911010742
5266824921,-0.0031728851103437067,0.009606994420155848,9.816475691824792,-0.0002230987139192717,0.0005771985732047029,-0.00010198616690286217,192832.0625,103767.2578125,270166.25,997.8304443359375,45.74161911010742
5266829783,-0.0007253172301900507,0.012965149909123744,9.822048010855553,-0.0004288178007264929,0.00045647560798378216,-5.6840537929020505e-05,192832.0625,103767.2578125,270166.25,997.8304443359375,45.74161911010742
5266834523,-0.0014560031199109674,0.006967179208859767,9.816859068899987,-0.00015105692554799187,0.00014958059070912676,-2.0977575679354053e-05,192832.0625,103767.2578125,270166.25,997.8304443359375,45.74161911010742
5266839756,-0.0007098721766126276,0.01342406097041067,9.81245309355819,-5.594781950650084e-05,-7.081724581959172e-05,1.465441857180776e-05,192832.0625,103767.2578125,270166.25,997.8304443359375,45.74161911010742
5266844487,-0.0007213237189900995,0.010521374374493922,9.81318837645614,-0.0002661416493502753,2.864061277640538e-05,-6.33829043927115e-05,192832.0625,103767.2578125,270166.25,997.8304443359375,45.74161911010742
5266849732,-0.0012728231453549982,0.009610779315099086,9.813951315909264,-0.00017336530263138282,0.00029447203339649384,-0.00019487895804741202,192832.0625,103767.2578125,270166.25,997.8304443359375,45.74161911010742
5266854839,-0.0012538912200582147,0.011473886400327052,9.81734639647567,-0.00019923633780864346,0.00026681601846056545,-0.00015836794080496548,192832.0625,103767.2578125,270166.25,997.8304443359375,45.74161911010742
5266859564,0.00042979843381522886,0.0048756671248525035,9.818600478201745,0.00010328862290761155,-0.0001751041865879528,-3.9852690299085956e-05,192832.0625,103767.2578125,270166.25,997.8304443359375,45.74161911010742
5266864641,-0.0024764644407880426,0.006398044258221949,9.813079657584069,0.00019691870138912183,-0.00039042765386121793,2.6911962429948468e-05,192832.0625,103767.2578125,270166.25,997.8304443359375,45.74161911010742
5266869528,0.0023740721440660834,-0.0011810066999346364,9.814554038077233,-7.703715354738104e-05,-7.74825177593015e-05,0.00028269248979813637,192832.0625,103767.2578125,270166.25,997.8304443359375,45.74161911010742
5266877444,0.007384505639110792,-0.0026007297338396657,9.819759192496178,-8.109422751304972e-05,3.839566377272384e-05,0.0004892101857130903,191877.46875,103449.0703125,274966.25,997.796142578125,45.73194885253906
5266879779,0.007859487602745283,-0.0004364254774004567,9.821089568167565,-5.802065148700951e-06,6.452176492010729e-05,0.0005377324410965222,191877.46875,103449.0703125,274966.25,997.796142578125,45.73194885253906
5266884526,0.004273947844539869,-0.0037929716409594166,9.817496123343346,0.0003537119063402219,4.0081008386812374e-05,0.0005914124773134965,191877.46875,103449.0703125,274966.25,997.796142578125,45.73194885253906
5266889730,-4.930370088936098e-05,0.003948494523629512,9.815168204336999,0.00044967910971889925,-0.00019401026768329068,0.0007563907998865026,191877.46875,103449.0703125,274966.25,997.796142578125,45.73194885253906
5266894472,-0.007495168080295336,0.006937689810857142,9.817701163321374,6.908332752926928e-05,-0.00025897205453085227,0.0006815267839720029,191877.46875,103449.0703125,274966.25,997.796142578125,45.73194885253906
5266899765,-0.01063595288034798,0.007693722575768794,9.808614554434655,0.0003437600988981007,-0.0002354918990256123,0.0006004283783277053,191877.46875,103449.0703125,274966.25,997.796142578125,45.73194885253906
5266904781,-0.013559225430454028,0.0016668883262723339,9.813173117667077,0.000287028114056638,-2.1720888276570275e-05,0.0005996471151029247,191877.46875,103449.0703125,274966.25,997.796142578125,45.73194885253906
5266909488,-0.011983479788268817,-0.007134527236357366,9.811693015128014,0.0005310582509117825,0.00024520420154138954,0.000499541929109909,191877.46875,103449.0703125,274966.25,997.796142578125,45.73194885253906
5266915106,-0.006023983886207354,-0.006891213625803624,9.815789999991296,0.0004717670980461566,0.00053777315658798,0.000538816267742731,191877.46875,103449.0703125,274966.25,997.796142578125,45.73194885253906
5266919533,0.00019149906400321715,-0.0078100564779192555,9.823154273062585,0.00034383411721490976,0.0006001200515804954,0.0002771900614043254,191877.46875,103449.0703125,274966.25,997.796142578125,45.73194885253906
5266924929,-0.0014145331883084894,-0.008573375910654699,9.824239554434655,0.0006439949082995458,0.00047363147202694343,0.0001427655221214074,191877.46875,103449.0703125,274966.25,997.796142578125,45.73194885253906
5266929723,-0.004565324118102801,-0.005211890012159978,9.82251340392196,0.00041354270243017656,0.0003408731415895887,1.846073393426122e-05,191877.46875,103449.0703125,274966.25,997.796142578125,45.73194885253906
5266934499,-0.0010603400373113275,-0.00698844370259348,9.815436186819909,0.000476566959972742,0.00028623694813567234,0.00031133560661874,191877.46875,103449.0703125,274966.25,997.796142578125,45.73194885253906
5266939732,-0.003620247771705401,-0.0010818320216089833,9.809271636038659,0.00033956711732015666,0.00010756343433448599,0.0005920789550309557,191877.46875,103449.0703125,274966.25,997.796142578125,45.73194885253906
5266944523,-0.007486205031837237,-0.0015819373430163014,9.80725461485946,0.0001332627597584082,-5.501159578280969e-05,0.00047355209209672393,191877.46875,103449.0703125,274966.25,997.796142578125,45.73194885253906
5266949768,-0.007501568129028094,-0.0006183984578997243,9.803014578848718,1.5164421623821379e-05,-0.0004638039401704304,0.0002361387010914761,191877.46875,103449.0703125,274966.25,997.796142578125,45.73194885253906
5266954712,-0.0029348241591107965,0.0024349686800092113,9.81028253081405,-0.00024885385764365363,-0.0007242465519318215,0.00023457384633547844,191877.46875,103449.0703125,274966.25,997.796142578125,45.73194885253906
5266959561,0.0031745625233995795,-0.0006777274311930287,9.810414137869714,-0.00013019113802884984,-0.0009678811195278399,-0.00013737927691363512,191877.46875,103449.0703125,274966.25,997.796142578125,45.73194885253906
5266964671,0.0016364199614870428,0.0028183606563657176,9.809964957266686,0.0002565463600184461,-0.0012113366403588882,-0.0003865585753210333,191877.46875,103449.0703125,274966.25,997.796142578125,45.73194885253906
5266969552,0.005117256710563886,0.0004388165770619762,9.812703909903405,0.00017400672541397345,-0.0011164253239491812,-0.0003479574664943364,191877.46875,103449.0703125,274966.25,997.796142578125,45.73194885253906
5266974828,0.00595110333922981,-0.0009446146787554371,9.806314291983483,0.0004193228832299514,-0.0007756653369376294,-3.533565939687906e-05,193362.390625,101115.6171875,274066.28125,997.8072509765625,45.73194885253906
5266979779,0.002550151715313184,-0.004732042819395696,9.80635243895614,0.00024284795827396867,-0.00040127191571237965,-5.628063843869386e-05,193362.390625,101115.6171875,274066.28125,997.8072509765625,45.73194885253906
5266984517,0.001641687521969068,-0.009876340896025335,9.801913085013268,0.00013716952699168307,-8.645907039473279e-05,-0.0001902296211319488,193362.390625,101115.6171875,274066.28125,997.8072509765625,45.73194885253906
5266989694,0.003644902775322187,-0.0024690034688860524,9.801784338980553,-2.461073572350013e-05,0.000290567693604578,-0.0002756514007905942,193362.390625,101115.6171875,274066.28125,997.8072509765625,45.73194885253906
5266994482,0.002718326220546949,-0.0028323757351786244,9.808484854727624,-0.00031472461532403993,0.0004331412335653,-9.771384100713549e-05,193362.390625,101115.6171875,274066.28125,997.8072509765625,45.73194885253906
5266999744,-0.0006248237990987421,-0.001662284404173528,9.807713332205651,-0.0001435475843173759,0.0003938351281015344,0.00024039909441671552,193362.390625,101115.6171875,274066.28125,997.8072509765625,45.73194885253906
5267004697,-0.006797830989326251,-0.0013210701645762074,9.814180197745202,-2.42797378597157e-05,0.0003886596666909896,0.0006196987229650396,193362.390625,101115.6171875,274066.28125,997.8072509765625,45.73194885253906
5267009511,-0.006572517981494677,-0.004387073487177526,9.817854704886315,0.0002766364416096525,0.00042396635287722127,0.0007680660925125259,193362.390625,101115.6171875,274066.28125,997.8072509765625,45.73194885253906
5267015085,-0.009705077340568316,-0.00032344487322870374,9.816422286063073,0.0005934733361790581,0.00048643273364567684,0.0006706722193648595,193362.390625,101115.6171875,274066.28125,997.8072509765625,45.73194885253906
5267019523,-0.010430704286063922,0.001172341137990321,9.816345038443444,0.0004026405094044907,0.0006317545765107639,0.0008013230395754355,193362.390625,101115.6171875,274066.28125,997.8072509765625,45.73194885253906
5267024901,-0.00650268368955971,-0.002180189162626897,9.810055556326745,0.0001783578790344922,0.0005985382292913415,0.0009196354654868621,193362.390625,101115.6171875,274066.28125,997.8072509765625,45.73194885253906
5267029731,-0.004815551867450488,-0.0006810503901392567,9.816253485709069,-0.0002228082576913135,0.00043829015228246824,0.0008385262332176346,193362.390625,101115.6171875,274066.28125,997.8072509765625,45.73194885253906
5267034500,-0.0008925827645909906,-0.0030705335439592946,9.814056220084069,-0.0002317139133957522,0.00017349356382900403,0.0006317220974033255,193362.390625,101115.6171875,274066.28125,997.8072509765625,45.73194885253906
5267039712,-0.0003181579017293573,0.004619098931416835,9.813557448416589,0.00010494528569678497,-0.00017692428193705602,0.0006323377016251463,193362.390625,101115.6171875,274066.28125,997.8072509765625,45.73194885253906
5267044540,-0.00012280367847801454,0.001184157758817042,9.814788641959069,9.402532478260529e-05,0.0001282692089937769,0.0005490912004624981,193362.390625,101115.6171875,274066.28125,997.8072509765625,45.73194885253906
5267049803,-0.0008113341831815363,0.003518558770284022,9.813651862173913,9.971129648319167e-05,0.00025703375538276994,0.00038694479700825395,193362.390625,101115.6171875,274066.28125,997.8072509765625,45.73194885253906
5267054708,-0.000826615323985827,0.003526404231652583,9.817333998709557,-3.4953742302705525e-05,0.00018382079613210188,0.000334388576100536,193362.390625,101115.6171875,274066.28125,997.8072509765625,45.73194885253906
5267059488,-0.0008183824324262262,-0.001949057251349126,9.812170805960534,-0.00021635983839233684,0.00010426838596166597,0.00030066282453662934,193362.390625,101115.6171875,274066.28125,997.8072509765625,45.73194885253906
5267064687,0.0009465409016954779,0.002798087626561488,9.809280219107507,-0.00046425503214423823,0.00011981105378644095,0.00035236711811921777,193362.390625,101115.6171875,274066.28125,997.8072509765625,45.73194885253906
5267069526,-0.003301556637252581,0.0005811673699468028,9.81156140807235,-0.000511341944817205,8.794230122865663e-05,0.00040888291516057434,193362.390625,101115.6171875,274066.28125,997.8072509765625,45.73194885253906
5267074855,-0.006274762978519213,0.0032446605263799083,9.812534155875085,-2.6351318375514732e-06,-3.75003739697717e-05,0.0002081586277363378,187528.765625,103767.2578125,273466.25,997.8067016601562,45.733558654785156
5267079737,-0.0004955413245809198,0.006475850671395625,9.81846887114608,0.0002850537183839055,-2.1984889122643307e-05,0.0001103751125065166,187528.765625,103767.2578125,273466.25,997.8067016601562,45.733558654785156
5267084531,0.001800638208423841,0.0008253825007527721,9.817821326285241,0.0005675392912088586,7.724021158927606e-05,-0.00010286376380645452,187528.765625,103767.2578125,273466.25,997.8067016601562,45.733558654785156
5267089789,0.0007148576474535345,0.0006918680964558971,9.817418875723718,0.0005509158526400728,0.0002566066202910293,-1.2639153630517107e-05,187528.765625,103767.2578125,273466.25,997.8067016601562,45.733558654785156
5267094553,-0.00021114521261574037,-0.0036220031680018056,9.819749655753014,0.0002574703029530514,0.0004944087256938361,-1.8607828515094333e-06,187528.765625,103767.2578125,273466.25,997.8067016601562,45.733558654785156
5267099779,0.00044890172246574156,-0.003372654587164556,9.818459334402917,0.0002950223005463062,0.0003240881549338952,0.00011630094342581214,187528.765625,103767.2578125,273466.25,997.8067016601562,45.733558654785156
5267104720,-0.00027223997351051576,-0.0006982835830599415,9.824772658377526,-6.683876390171516e-05,5.95227309297912e-05,0.00046986894414476337,187528.765625,103767.2578125,273466.25,997.8067016601562,45.733558654785156
5267109553,-0.0003223674797666193,-0.004029855400458013,9.822238745718835,-0.00024258291350280213,-3.8957777383723095e-05,0.00030187948106504263,187528.765625,103767.2578125,273466.25,997.8067016601562,45.733558654785156
5267115071,-0.0003170328640592218,0.0035507080255597484,9.817689719229577,-0.0003175817965676384,-0.00013393172523657306,0.00017409073154158177,187528.765625,103767.2578125,273466.25,997.8067016601562,45.733558654785156
5267119494,0.004381102094684827,-0.0020469280780703175,9.819674315482018,-0.0005876151099947588,-0.0002664654177585475,0.00013234943582392516,187528.765625,103767.2578125,273466.25,997.8067016601562,45.733558654785156
5267124915,0.006859567532573926,-0.0022160413564592946,9.810931029349206,-0.0004040854820196824,-0.0004956261848071448,0.00041316187672964515,187528.765625,103767.2578125,273466.25,997.8067016601562,45.733558654785156
5267129773,0.0009865952229845404,-0.0016383978427797902,9.808222594290612,-0.0003289553406794863,-0.00044989789714755936,0.0006034573885863203,187528.765625,103767.2578125,273466.25,997.8067016601562,45.733558654785156
5267134513,-0.010359066953624499,-0.004760429531469976,9.801998915701745,-0.0002216292033118503,-0.00030676415301578565,0.0006020449214865941,187528.765625,103767.2578125,273466.25,997.8067016601562,45.733558654785156
5267139737,-0.015170055856670153,0.0005250719486325633,9.802401366263268,-0.0001770271174756186,-0.00025625858800204916,0.0005270250254561681,187528.765625,103767.2578125,273466.25,997.8067016601562,45.733558654785156
5267144531,-0.015735346307719958,-0.005138293177023565,9.812133612662194,-0.00028677364579935837,7.820133648627923e-05,0.0005636173879047412,187528.765625,103767.2578125,273466.25,997.8067016601562,45.733558654785156
5267149773,-0.0161041202449453,-0.0051550271810442555,9.810948195486901,-0.0003570802929026382,0.0001528001874014877,0.00048130733159086885,187528.765625,103767.2578125,273466.25,997.8067016601562,45.733558654785156
5267154699,-0.006918381383384478,-0.0033093097509295094,9.812501730948327,-0.0004880196484883623,0.00010669557266218142,0.00042298523441604557,187528.765625,103767.2578125,273466.25,997.8067016601562,45.733558654785156
5267159484,-0.0027039157652509332,-0.008017502993479406,9.806016745596764,-0.0006185111543310182,0.00020308986020089613,0.0003994234717702049,187528.765625,103767.2578125,273466.25,997.8067016601562,45.733558654785156
5267164718,-0.0008482071065557123,-0.0029600265325457203,9.805062117606042,-0.00038538865746532845,7.012895255164729e-05,0.00023372459656275095,187528.765625,103767.2578125,273466.25,997.8067016601562,45.733558654785156
5267169568,-0.0012405174278867365,-0.007636778324976598,9.807860198050378,-0.00017723771279280352,8.798220258021282e-05,6.426993024251642e-05,187528.765625,103767.2578125,273466.25,997.8067016601562,45.733558654785156
5267174883,0.0008373600936281561,-0.0064806791843325245,9.80294209960067,0.000252003261179097,0.00022624445298268946,-9.377466665864704e-05,193574.515625,101964.140625,271066.28125,997.8010864257812,45.72764587402344
5267179766,0.002775323162113416,-0.0008742588461786854,9.807757201224206,0.0003399402720823577,0.00030239289414956837,-7.232220412515817e-05,193574.515625,101964.140625,271066.28125,997.8010864257812,45.72764587402344
5267184431,0.002748143444095838,-0.0027544128598124135,9.81073075774276,0.0005185662320435671,0.0001970195360393405,-6.449827959113536e-05,193574.515625,101964.140625,271066.28125,997.8010864257812,45.72764587402344
5267189705,0.004233170816932905,0.0021532547770589244,9.81354123595321,0.00044159115523497296,0.0003556957806488641,-4.8446239652555996e-06,193574.515625,101964.140625,271066.28125,997.8010864257812,45.72764587402344
5267194524,0.008155044684444654,-0.0034617039264589894,9.815145316153405,8.984204205616099e-05,0.0008770527772633501,-0.00014455831877239762,193574.515625,101964.140625,271066.28125,997.8010864257812,45.72764587402344
5267199726,0.010321353147064435,-0.0002223106922060597,9.806862654715417,0.00011963815077605379,0.0009929841023897895,-0.000329615097491115,193574.515625,101964.140625,271066.28125,997.8010864257812,45.72764587402344
5267204691,0.006874751815830457,-0.000521786779299413,9.805417838126061,-1.936584712540078e-05,0.000992047482918031,-0.00020129259826899288,193574.515625,101964.140625,271066.28125,997.8010864257812,45.72764587402344
5267209529,0.0037104753351557135,-0.007799379795923864,9.803420844107507,0.00013403258517781925,0.0008164191374583312,-0.00026479587575704573,193574.515625,101964.140625,271066.28125,997.8010864257812,45.72764587402344
5267215042,0.0013183993792879461,-0.005152166158095037,9.808794798880456,0.00016274966938352865,0.00047983844594845103,-0.0003288774027005282,193574.515625,101964.140625,271066.28125,997.8010864257812,45.72764587402344
5267219480,0.002745289871727216,-0.009694233805075322,9.813885512381432,0.00020246517115437147,0.00026720475468599723,-0.0002727131944830042,193574.515625,101964.140625,271066.28125,997.8010864257812,45.72764587402344
5267224923,0.004467633137737501,-0.01236726370467249,9.810039343863366,0.0006434137921168162,4.06267925193675e-05,-0.00019191086210594295,193574.515625,101964.140625,271066.28125,997.8010864257812,45.72764587402344
5267229727,0.007293675611053693,-0.006415352493658696,9.812001051932214,0.00047951881597681624,5.531989042927997e-05,0.0001914545424533564,193574.515625,101964.140625,271066.28125,997.8010864257812,45.72764587402344
5267234515,0.005291600296531904,-0.01005863425149027,9.813235106497643,0.0006414296093715979,0.00015579091157113688,0.00015925255103684248,193574.515625,101964.140625,271066.28125,997.8010864257812,45.72764587402344
5267239753,0.0003936705685007452,-0.004319958657160436,9.814368071585534,0.0006438110011948897,0.00014344756962080972,0.000188520643512674,193574.515625,101964.140625,271066.28125,997.8010864257812,45.72764587402344
5267244479,0.001515109608207929,-0.004106290906801854,9.821695151358483,0.00022555991918478814,0.00011496481490602271,0.00027206563356048645,193574.515625,101964.140625,271066.28125,997.8010864257812,45.72764587402344
5267249729,0.000985365877186048,-0.00011291381730142713,9.82206994536483,0.00019066465202185047,-4.564738012569471e-05,0.00028164306387952747,193574.515625,101964.140625,271066.28125,997.8010864257812,45.72764587402344
5267254762,-0.0021240817808759332,0.008770070701703395,9.827483000784753,0.00019705137847621647,-0.00011623147404471858,0.00030470528837940874,193574.515625,101964.140625,271066.28125,997.8010864257812,45.72764587402344
5267259516,-0.0010359840893399835,0.006240099400147761,9.822725119620202,0.0003449123995814165,-7.67553003476791e-05,0.00039488187723509254,193574.515625,101964.140625,271066.28125,997.8010864257812,45.72764587402344
5267264678,-0.0016717048787725092,0.010237246483430232,9.82066899779403,0.00031917853075709847,-0.00018166171614731176,0.0003731289758597988,193574.515625,101964.140625,271066.28125,997.8010864257812,45.72764587402344
5267269526,-0.005871738722289813,0.009722575276955928,9.820823493033288,0.00010294107951621246,-0.000135780924416133,0.0003120393372391838,193574.515625,101964.140625,271066.28125,997.8010864257812,45.72764587402344
5267274838,-0.0073684784078252435,0.01016088548289236,9.814286055594323,0.00022799281751203072,-8.825032384785338e-05,0.0003312134646130282,196756.5,106843.1640625,276316.25,997.8096923828125,45.72871780395508
5267279713,-0.006981264283622515,0.009887844055756892,9.815782370596764,0.00012183045501286817,-0.00012738487678299172,0.00019493617548323454,196756.5,106843.1640625,276316.25,997.8096923828125,45.72871780395508
5267284513,-0.0036147268914830805,0.0031336990295499217,9.813139739066003,0.00012221017268883717,-0.00022357521922978087,-1.3154000391296726e-05,196756.5,106843.1640625,276316.25,997.8096923828125,45.72871780395508
5267289706,-0.002863864829505694,0.004034906357392634,9.807025733023522,-0.00023790441454922128,-0.0001650800997828923,-0.0003277591316709739,196756.5,106843.1640625,276316.25,997.8096923828125,45.72871780395508
5267294510,0.0010768515563356756,-0.0019743445218950856,9.808951201468346,-0.0004529607086588936,0.00017089562495519893,-0.000220701331620149,196756.5,106843.1640625,276316.25,997.8096923828125,45.72871780395508
5267299762,0.004468154678379285,-0.0012776332796961415,9.80420285704696,-5.751497346510458e-05,0.00024075310536708237,3.987090860209646e-05,196756.5,106843.1640625,276316.25,997.8096923828125,45.72871780395508
5267304692,0.0035713953471529364,0.0037787777482121837,9.80530148985946,-0.00015221063049112725,0.00020416884833529146,0.0002183994507668096,196756.5,106843.1640625,276316.25,997.8096923828125,45.72871780395508
5267309545,-0.002136136820281756,0.002374358206853236,9.807473006277917,-0.00014318087605362105,0.0002090176556287475,0.00022603350191093268,196756.5,106843.1640625,276316.25,997.8096923828125,45.72871780395508
5267315089,-0.006256203582252276,0.006393119424447383,9.810008826285241,-0.00017130169553284812,0.00019368527753093766,0.00020700518472767653,196756.5,106843.1640625,276316.25,997.8096923828125,45.72871780395508
5267319531,-0.004409778346980822,0.004756368428334559,9.810349288016198,-0.00038018221502726245,0.00018166770203087033,9.894137854643483e-06,196756.5,106843.1640625,276316.25,997.8096923828125,45.72871780395508
5267324918,-0.006280343463386309,0.004014879196748103,9.804611029654382,-0.0003423172584881382,4.8748798484928176e-05,6.829324376485528e-05,196756.5,106843.1640625,276316.25,997.8096923828125,45.72871780395508
5267329714,-0.0041967140936505914,0.0034501326380818736,9.809178175955651,-0.00019535906730753648,-9.513812367523535e-05,5.432736326656522e-05,196756.5,106843.1640625,276316.25,997.8096923828125,45.72871780395508
5267334541,-0.0008020358585965753,-0.0024974646867663014,9.80912000182235,0.00010255692350609881,-0.0001499314978225015,-7.559772382774172e-05,196756.5,106843.1640625,276316.25,997.8096923828125,45.72871780395508
5267339728,0.0038076234555590033,0.0016701814828961742,9.811363997488854,0.00028232237573673903,-0.00020363542828428073,-0.00032035472430106966,196756.5,106843.1640625,276316.25,997.8096923828125,45.72871780395508
5267344474,-6.961130750299249e-07,0.0013867166935056102,9.810357871085046,0.00032717865351868515,2.6340711678392455e-05,-0.0003786843011603203,196756.5,106843.1640625,276316.25,997.8096923828125,45.72871780395508
5267349741,-0.004155840208495867,0.006458386510476435,9.800250830679772,0.00046513267616673094,0.00018075013101614566,-0.00042580383922722904,196756.5,106843.1640625,276316.25,997.8096923828125,45.72871780395508
5267354779,-0.009302850296462786,0.006536081164941157,9.802058997183678,0.000297188553216883,0.00023254129953264745,-0.00044996634131348474,196756.5,106843.1640625,276316.25,997.8096923828125,45.72871780395508
5267359502,-0.010677668681110156,0.0016147268115132701,9.807103934317468,0.0005291706928836806,0.00021752813224728705,-0.00038047721353177695,196756.5,106843.1640625,276316.25,997.8096923828125,45.72871780395508
5267364680,-0.011711146166290057,0.0030895915924161327,9.808208289175866,0.0006853771791646881,0.00011927721677628832,-0.00024777435499527274,196756.5,106843.1640625,276316.25,997.8096923828125,45.72871780395508
5267369554,-0.008724886407817614,-0.0011535960139185536,9.809623541861413,0.0001999749310051715,-8.63661709679149e-05,-0.00024694952333629845,196756.5,106843.1640625,276316.25,997.8096923828125,45.72871780395508
5267379889,-0.00154241495367409,0.002488895982369746,9.814269843130944,-9.947635234867501e-05,0.0002020912568462223,-7.538945681699334e-05,186043.859375,102282.34375,277366.28125,997.789794921875,45.7330207824707
5267379990,-0.00154241495367409,0.002488895982369746,9.814269843130944,-9.947635234867501e-05,0.0002020912568462223,-7.538945681699334e-05,186043.859375,102282.34375,277366.28125,997.789794921875,45.7330207824707
5267384504,0.0017618355846750616,-0.0059517103136927235,9.810775580435632,-0.0001455084839982288,0.0006427043688511618,-0.00017898017575316845,186043.859375,102282.34375,277366.28125,997.789794921875,45.7330207824707
5267389710,0.0009870869613039374,-0.0059402662218958485,9.812183203726647,-0.00017548673904103505,0.0004551150330137603,-0.00038039979734276203,186043.859375,102282.34375,277366.28125,997.789794921875,45.7330207824707
5267394524,-0.0012802141213071466,-0.009430565208330785,9.818670096426843,-0.0003384533175413804,0.0005345054076081284,-0.00036883460450735657,186043.859375,102282.34375,277366.28125,997.789794921875,45.7330207824707
5267399749,-6.48828649175287e-05,-0.0036149698199183095,9.817255797415612,-0.0002849299181399243,0.0005723799393074729,-0.00018689033493683456,186043.859375,102282.34375,277366.28125,997.789794921875,45.7330207824707
5267404727,0.002550345430408704,0.0006526407896130931,9.816546263724206,-0.00045045713895534444,0.0006006012834170975,-3.957707702466069e-05,186043.859375,102282.34375,277366.28125,997.789794921875,45.7330207824707
5267409499,0.0007244241929399847,-0.004154913395777379,9.811656775503991,-0.0003371652402130263,0.0004018830138868794,7.263937697462024e-05,186043.859375,102282.34375,277366.28125,997.789794921875,45.7330207824707
5267415079,0.0018334133124697088,-0.0004333930910975087,9.808646979361413,-0.0003025408205722766,0.00029630589144679796,0.00040431413764781537,186043.859375,102282.34375,277366.28125,997.789794921875,45.7330207824707
5267419518,0.0029425439930307745,-0.0008700343669802296,9.815270247488854,-0.0006461036810797946,0.00019947923899443375,0.0004875716400583762,186043.859375,102282.34375,277366.28125,997.789794921875,45.7330207824707
5267424858,0.005055662760769117,-1.9423931971226938e-05,9.815769972830651,-0.0005992466886674361,-4.895494314561112e-05,0.0004082235969854075,186043.859375,102282.34375,277366.28125,997.789794921875,45.7330207824707
5267429761,0.007185113201175916,-0.0004370885790735829,9.81542283537948,-0.0006716330954951541,-3.9160922120311096e-05,0.0004841148034920472,186043.859375,102282.34375,277366.28125,997.789794921875,45.7330207824707
5267434533,0.004758026967083204,-0.004695147544279729,9.807181181937096,-0.00023069586140637565,-0.00012689508842023535,0.000368847977022596,186043.859375,102282.34375,277366.28125,997.789794921875,45.7330207824707
5267439733,-0.0016000749969136835,-0.0020982923807055104,9.809978308707116,0.0001785976000100067,-8.363588242510779e-05,0.00014904874807871165,186043.859375,102282.34375,277366.28125,997.789794921875,45.7330207824707
5267444549,-0.006437282493079913,-0.007919177681341802,9.813849272757409,-0.00016078732559991348,5.637301253435688e-05,-0.00014955736731462894,186043.859375,102282.34375,277366.28125,997.789794921875,45.7330207824707
5267449760,-0.009690153827632678,-0.007168002694979345,9.812167944937585,-0.00015234363499631452,8.781507383381502e-05,-0.0002856534850998294,186043.859375,102282.34375,277366.28125,997.789794921875,45.7330207824707
5267454751,-0.011235933234657061,-0.005747400492563878,9.810176672964928,-0.00039455892519627976,-0.0001247348566045843,-0.00020177176373363255,186043.859375,102282.34375,277366.28125,997.789794921875,45.7330207824707
5267459491,-0.01009576343532921,-0.006818220287695562,9.801467719107507,-0.0003053667443019645,-0.00023885688390301986,-5.318393267043648e-05,186043.859375,102282.34375,277366.28125,997.789794921875,45.7330207824707
5267464655,-0.006621058514083636,4.8547714814509146e-05,9.80104238036239,-0.0002777108294104533,-8.340305178145392e-05,-6.260467109314781e-06,186043.859375,102282.34375,277366.28125,997.789794921875,45.7330207824707
5267469491,-0.002409543325866473,-0.0011185112298876393,9.802401366263268,-0.0002721833135147886,0.00013211967486703323,2.924422698742928e-05,186043.859375,102282.34375,277366.28125,997.789794921875,45.7330207824707
5267474781,-0.005120630791152728,0.00292678895579275,9.798643889456628,8.160741881864798e-05,0.00021062514749636428,-0.0003438503193883669,193998.78125,101327.75,269116.28125,997.8102416992188,45.72657012939453
5267479733,-0.006154890587295306,0.0062284243403523815,9.805499854117272,-0.00019677534700905251,0.00025614152652841547,-0.0005240435751893536,193998.78125,101327.75,269116.28125,997.8102416992188,45.72657012939453
5267484513,0.0018998352384912848,0.002057850092515315,9.805947127371667,-0.00022164491938029694,0.0004036230882541418,-0.0004937351553799097,193998.78125,101327.75,269116.28125,997.8102416992188,45.72657012939453
5267489778,0.005449165174995649,0.006529636412724818,9.809142890005944,-0.0003717167838623123,0.0005282840854982056,-0.00022788893000506578,193998.78125,101327.75,269116.28125,997.8102416992188,45.72657012939453
5267494540,0.007217597732578504,0.0019179281889050853,9.812277617483971,-0.0006484275637341039,0.0005779337941697009,-9.982063819006799e-05,193998.78125,101327.75,269116.28125,997.8102416992188,45.72657012939453
5267499765,0.004865039656196821,0.000800348549947108,9.807514014273522,-0.0004975167522353427,0.0003792331033530787,-0.00011461772408620236,193998.78125,101327.75,269116.28125,997.8102416992188,45.72657012939453
5267504729,0.00010763532880424254,0.0031775307952016246,9.81252461913192,-0.00022995202570756245,0.00014639018515871392,-0.00013573732611075757,193998.78125,101327.75,269116.28125,997.8102416992188,45.72657012939453
5267509520,-0.005481760432685626,4.2222171887720816e-05,9.816722693472741,-0.00013896213030976522,-4.6110082855306414e-06,-0.0002487077730456811,193998.78125,101327.75,269116.28125,997.8102416992188,45.72657012939453
5267515107,-0.0037344726228368402,0.00611636015759405,9.81801778319442,-0.00011466427358401286,-3.5192071897767333e-06,-0.00017962607706249474,193998.78125,101327.75,269116.28125,997.8102416992188,45.72657012939453
5267519503,0.0026787710881578802,0.003969840437039698,9.817671599417565,-0.0005129578476918237,0.0002363596711568676,2.551096223942222e-05,193998.78125,101327.75,269116.28125,997.8102416992188,45.72657012939453
5267524836,0.001793187627826917,0.007450312107667292,9.809025588065026,-0.0002627209015337126,0.0003014800404564881,0.00011610053444928708,193998.78125,101327.75,269116.28125,997.8102416992188,45.72657012939453
5267529728,-0.0010752188467633844,0.006699248880013789,9.812163176566003,-0.00022010311485802102,7.396172329598592e-05,-2.6274822068445068e-05,193998.78125,101327.75,269116.28125,997.8102416992188,45.72657012939453
5267534542,-0.0047361435794484735,-0.0010709467233568776,9.811371626883385,-9.01284348366158e-05,0.00022748557855655925,-0.0002524408922745359,193998.78125,101327.75,269116.28125,997.8102416992188,45.72657012939453
5267539702,-0.005230117073024523,-0.0018092545570284474,9.811860861807702,-0.00019544111100559401,0.0003665459069218628,-0.0005908195929641814,193998.78125,101327.75,269116.28125,997.8102416992188,45.72657012939453
5267544505,-0.00501301460501076,-0.0021056982578188527,9.809628310232995,-0.00024470999605556297,0.00024223338439177276,-0.00048139488388369573,193998.78125,101327.75,269116.28125,997.8102416992188,45.72657012939453
5267549726,-0.004641632964576495,-0.002383925289049779,9.800885024100182,9.17098967910437e-05,-9.33580751968406e-05,-0.000329262460929386,193998.78125,101327.75,269116.28125,997.8102416992188,45.72657012939453
5267554712,-0.009648266663516772,-0.0009014162124544728,9.802505316763757,-0.0002491228934523957,-0.00020397204318734331,-0.0001792695260355693,193998.78125,101327.75,269116.28125,997.8102416992188,45.72657012939453
5267559541,-0.009155723681415331,-0.007268846303358709,9.799887480765221,-0.000367539743907501,-0.00034405500739532037,-0.00027275917853512583,193998.78125,101327.75,269116.28125,997.8102416992188,45.72657012939453
5267564669,-0.004400666286910784,-0.007083922892943059,9.799301924734948,-0.0005235247500387328,-0.0006594942544558875,-0.0002530722998762947,193998.78125,101327.75,269116.28125,997.8102416992188,45.72657012939453
5267569572,0.002832841644321668,-0.01263967183245722,9.802318396597741,-0.0007562478259352343,-0.0005814294574754171,-0.00011077290435605465,193998.78125,101327.75,269116.28125,997.8102416992188,45.72657012939453
5267574790,0.004477147529159772,-0.008415095776453649,9.803688826590417,-0.0004587475396839278,-0.00044754048688056393,-2.427818288379131e-05,191135.015625,102070.203125,271966.28125,997.8156127929688,45.72603225708008
5267579784,0.0015324396586763739,-0.0002016725839525807,9.808195891409753,-0.00036919627572943735,-6.30289734778784e-05,-5.5368640807501655e-05,191135.015625,102070.203125,271966.28125,997.8156127929688,45.72603225708008
5267584504,0.00010299361709235899,0.0012905222474187267,9.809331717520593,-0.00028354026844327617,0.0003207298839463761,-3.1484815173826795e-05,191135.015625,102070.203125,271966.28125,997.8156127929688,45.72603225708008
5267589753,-0.0016122715973508478,0.01286490979777273,9.807707610159753,-0.00017278430286397505,0.00023833120828775243,-7.60979313618016e-05,191135.015625,102070.203125,271966.28125,997.8156127929688,45.72603225708008
5267594470,-0.0007592918777120233,0.008292935520276393,9.810004057913659,-5.703388714765477e-05,0.00014938061829005854,-3.848056110837279e-05,191135.015625,102070.203125,271966.28125,997.8156127929688,45.72603225708008
5267599742,-0.004901628425086749,0.007771432131394709,9.809949698477624,0.00023925973974100036,0.0001265812595868625,0.00011825107468939604,191135.015625,102070.203125,271966.28125,997.8156127929688,45.72603225708008
5267604683,-0.0026090177201879144,0.0071922686992734325,9.816779913931725,3.2704572644333364e-05,-0.00014188664611148162,0.0001380678146397251,191135.015625,102070.203125,271966.28125,997.8156127929688,45.72603225708008
5267609490,-0.0035828086042058588,0.0002998930512517345,9.816812338858483,-0.00011920755614129174,-8.833609283620937e-05,-2.6247522675476652e-05,191135.015625,102070.203125,271966.28125,997.8156127929688,45.72603225708008
5267615104,-0.0030170860194814325,-0.00047133889807764173,9.814947905569909,-0.00024374403992270398,-0.0002597541326628856,-0.00019582230050400613,191135.015625,102070.203125,271966.28125,997.8156127929688,45.72603225708008
5267619537,-0.005198742678130877,-0.009691879421606694,9.811092200308678,-0.0005416282056977348,-0.00026650144830065294,-0.00014795723871611772,191135.015625,102070.203125,271966.28125,997.8156127929688,45.72603225708008
5267625032,-0.005088250567878497,-0.008939601749315892,9.803075614004968,-0.0004491905984615283,-0.00014193586068878396,8.185277658230843e-05,191135.015625,102070.203125,271966.28125,997.8156127929688,45.72603225708008
5267629727,-0.004718873133624804,-0.0049695747794062245,9.80486089232528,-0.0006203442299885051,-2.2321775993190554e-06,0.0002915590299544412,191135.015625,102070.203125,271966.28125,997.8156127929688,45.72603225708008
5267634507,-0.0031122820877683283,-0.010551214486494695,9.805319609671471,-0.0005806833342795567,0.00027571048738017233,0.0006177742612799186,191135.015625,102070.203125,271966.28125,997.8156127929688,45.72603225708008
5267639720,-0.005584049453700793,-0.005329445272818242,9.804390730887292,-0.0003604519134533899,0.00021664741395787822,0.0007282787115564126,191135.015625,102070.203125,271966.28125,997.8156127929688,45.72603225708008
5267644482,-0.008610147466624987,-0.0015712755621821034,9.808769049673913,-0.00038376699203227925,0.00022181694546296747,0.0008324264195998687,191135.015625,102070.203125,271966.28125,997.8156127929688,45.72603225708008
5267649790,-0.011177170505489123,0.004413976997002925,9.809384169607995,-8.678315325242746e-05,0.0001545856055366017,0.0008817214398895878,191135.015625,102070.203125,271966.28125,997.8156127929688,45.72603225708008
5267654746,-0.008144538333381426,0.006834119289979304,9.819863142996667,-0.0001392860268389182,0.0003107694535849874,0.0008398485948582667,191135.015625,102070.203125,271966.28125,997.8156127929688,45.72603225708008
5267659567,-0.003216471006835711,0.003352589636906947,9.822106184988854,4.1631386833514096e-05,0.00031204354470381766,0.0005538705150847811,191135.015625,102070.203125,271966.28125,997.8156127929688,45.72603225708008
5267664662,-0.00024477713343025453,0.008080251246556605,9.818481268912194,0.00021963349163696823,0.0003011090857619707,0.0003627619586204666,191135.015625,102070.203125,271966.28125,997.8156127929688,45.72603225708008
5267669500,0.000997003684078443,0.0022091192303746593,9.814598860770104,0.0001386735838458566,0.0003609997645747058,0.00012500310514769735,191135.015625,102070.203125,271966.28125,997.8156127929688,45.72603225708008
5267674857,6.276793244956724e-05,0.002360753446683253,9.806334319144128,0.00037836352012517584,0.0002974593071706182,-0.00021625551779106973,193680.59375,102706.5859375,270166.25,997.8072509765625,45.73194885253906
5267679773,0.001508269975219953,0.0017802563606351268,9.809647383719323,0.00039286472192897183,0.00037680438870146425,-0.00034227313916017083,193680.59375,102706.5859375,270166.25,997.8072509765625,45.73194885253906
5267684451,0.0002554548478472113,0.002121992140874232,9.807126822501061,0.0004152959171768902,9.399437001255827e-05,-0.00019554348580823062,193680.59375,102706.5859375,270166.25,997.8072509765625,45.73194885253906
5267689714,-0.00024019502636314638,0.00630922588692602,9.810870947867272,0.0003229506200149348,-0.00010174344172420426,-0.00015482967172101853,193680.59375,102706.5859375,270166.25,997.8072509765625,45.73194885253906
5267694499,-0.0027456688189160944,-0.0005229118169695485,9.812708678274987,-0.00019645817346473503,-5.4835837750681475e-05,-0.0003372758368477669,193680.59375,102706.5859375,270166.25,997.8072509765625,45.73194885253906
5267699712,-0.0015233116650235773,-0.004246667295828496,9.812552275687096,-0.00022042174359386134,8.159399910645114e-05,-0.00036755987128526686,193680.59375,102706.5859375,270166.25,997.8072509765625,45.73194885253906
5267704698,-0.00032504968878151186,-0.0020664784015566456,9.82221871855819,-0.00023586941651602554,0.00010222576272489058,-0.000366974404079884,193680.59375,102706.5859375,270166.25,997.8072509765625,45.73194885253906
5267709513,-0.0011043357157361627,-0.004795313149824773,9.822379889517663,6.628879331300975e-06,0.00029782855201509627,-0.0002255980801983249,193680.59375,102706.5859375,270166.25,997.8072509765625,45.73194885253906
5267715135,-5.50629996907831e-05,-0.002260603279009496,9.81445676329696,0.00020525232858189103,0.0005335868907189138,-5.8518723000816684e-05,193680.59375,102706.5859375,270166.25,997.8072509765625,45.73194885253906
5267719536,-0.00597790204521538,-0.0042514356674105275,9.812932791739343,-7.759719855685997e-05,0.0005931368202930458,-0.0002621052266313207,193680.59375,102706.5859375,270166.25,997.8072509765625,45.73194885253906
5267724897,-0.005477647712196124,-0.005393773585692083,9.806356253653405,-5.827484537449944e-05,0.0005250807723989852,-0.00041164259926699815,193680.59375,102706.5859375,270166.25,997.8072509765625,45.73194885253906
5267729745,-0.003767471244300616,-0.0034216943086535084,9.80510789397323,-0.0002521040570137398,0.0005266803189208873,-0.00036144226067517666,193680.59375,102706.5859375,270166.25,997.8072509765625,45.73194885253906
5267734527,-0.002235125234092486,-0.009676687687769567,9.803855719595788,1.5052866641680719e-05,0.00034613507775637807,-0.00010907580179446159,193680.59375,102706.5859375,270166.25,997.8072509765625,45.73194885253906
