Timestamp,Accelerometer_X,Accelerometer_Y,Accelerometer_Z,Gyroscope_X,Gyroscope_Y,Gyroscope_Z,Magnetometer_X,Magnetometer_Y,Magnetometer_Z,Abs_Pressure,Temperature
71120,-0.004999166527754626,0.0011351891981997153,-9.808911105184198,0.0,-6.6677779629938325e-06,1.6669444907484581e-06,0,0,0,45.12
71133,-0.004999166527754626,0.0011351891981997153,-9.808911105184198,0.0,-6.6677779629938325e-06,1.6669444907484581e-06,0,0,0,44.81
71153,-0.014999166527754626,0.0011351891981997153,-9.808911105184198,0.0,-6.6677779629938325e-06,1.6669444907484581e-06,0,0,0,44.93
71163,-0.004999166527754626,0.0011351891981997153,-9.818911105184197,0.0,-6.6677779629938325e-06,1.6669444907484581e-06,0,0,0,45.25
71172,-0.004999166527754626,-0.00886481080180028,-9.808911105184198,0.0,-6.6677779629938325e-06,1.6669444907484581e-06,0,0,0,45.06
71183,0.005000833472245374,-0.00886481080180028,-9.808911105184198,0.0,-6.6677779629938325e-06,1.6669444907484581e-06,0,0,0,45.12
71192,0.005000833472245374,0.0011351891981997153,-9.818911105184197,0.0,-6.6677779629938325e-06,1.6669444907484581e-06,0,0,0,45.0
71203,-0.004999166527754626,0.01113518919819971,-9.818911105184197,0.0,-6.6677779629938325e-06,1.6669444907484581e-06,0,0,0,44.93
71213,-0.004999166527754626,0.0011351891981997153,-9.818911105184197,0.0,-6.6677779629938325e-06,1.6669444907484581e-06,0,0,0,45.12
71222,-0.004999166527754626,0.0011351891981997153,-9.808911105184198,0.0,-6.6677779629938325e-06,1.6669444907484581e-06,0,0,0,45.12
71233,0.005000833472245374,0.0011351891981997153,-9.808911105184198,0.0,-6.6677779629938325e-06,1.6669444907484581e-06,0,0,0,45.0
71242,-0.004999166527754626,0.0011351891981997153,-9.808911105184198,0.0,-6.6677779629938325e-06,1.6669444907484581e-06,0,0,0,45.12
71253,-0.004999166527754626,0.0011351891981997153,-9.818911105184197,0.0,-6.6677779629938325e-06,1.6669444907484581e-06,0,0,0,45.0
71263,-0.004999166527754626,-0.00886481080180028,-9.818911105184197,0.0,-6.6677779629938325e-06,1.6669444907484581e-06,0,0,0,44.87
71272,-0.004999166527754626,-0.00886481080180028,-9.808911105184198,0.0,-6.6677779629938325e-06,1.6669444907484581e-06,0,0,0,45.0
71283,0.005000833472245374,0.0011351891981997153,-9.808911105184198,0.0,-6.6677779629938325e-06,1.6669444907484581e-06,0,0,0,45.06
71292,-0.004999166527754626,0.0011351891981997153,-9.818911105184197,0.0,-6.6677779629938325e-06,1.6669444907484581e-06,0,0,0,45.25
71303,0.005000833472245374,0.0011351891981997153,-9.808911105184198,0.0,-6.6677779629938325e-06,1.6669444907484581e-06,0,0,0,45.06
71313,0.005000833472245374,0.0011351891981997153,-9.808911105184198,0.0,-6.6677779629938325e-06,1.6669444907484581e-06,0,0,0,45.0
71322,0.005000833472245374,-0.00886481080180028,-9.808911105184198,0.0,-6.6677779629938325e-06,1.6669444907484581e-06,0,0,0,45.12
71333,-0.004999166527754626,0.0011351891981997153,-9.808911105184198,0.0,-6.6677779629938325e-06,1.6669444907484581e-06,0,0,0,45.0
71342,0.005000833472245374,0.0011351891981997153,-9.808911105184198,0.0,-6.6677779629938325e-06,1.6669444907484581e-06,0,0,0,45.0
71353,-0.004999166527754626,0.0011351891981997153,-9.818911105184197,0.0,-6.6677779629938325e-06,1.6669444907484581e-06,0,0,0,45.12
71363,-0.004999166527754626,0.0011351891981997153,-9.818911105184197,0.0,-6.6677779629938325e-06,1.6669444907484581e-06,0,0,0,45.06
71372,-0.004999166527754626,0.0011351891981997153,-9.818911105184197,0.0,-6.6677779629938325e-06,1.6669444907484581e-06,0,0,0,45.0
71383,-0.004999166527754626,-0.00886481080180028,-9.818911105184197,0.0,-6.6677779629938325e-06,1.6669444907484581e-06,0,0,0,44.93
71392,-0.014999166527754626,0.0011351891981997153,-9.818911105184197,0.0,-6.6677779629938325e-06,1.6669444907484581e-06,0,0,0,45.25
71403,-0.004999166527754626,0.0011351891981997153,-9.818911105184197,0.0,-6.6677779629938325e-06,1.6669444907484581e-06,0,0,0,45.12
71413,0.005000833472245374,0.0011351891981997153,-9.818911105184197,0.0,-6.6677779629938325e-06,1.6669444907484581e-06,0,0,0,45.0
71422,0.005000833472245374,0.0011351891981997153,-9.818911105184197,0.0,-6.6677779629938325e-06,1.6669444907484581e-06,0,0,0,45.12
71433,0.005000833472245374,0.0011351891981997153,-9.808911105184198,0.0,-6.6677779629938325e-06,1.6669444907484581e-06,0,0,0,45.25
71442,0.005000833472245374,0.01113518919819971,-9.808911105184198,0.0,-6.6677779629938325e-06,1.6669444907484581e-06,0,0,0,44.93
71453,0.005000833472245374,0.0011351891981997153,-9.808911105184198,0.0,-6.6677779629938325e-06,1.6669444907484581e-06,0,0,0,45.0
71463,0.005000833472245374,0.0011351891981997153,-9.808911105184198,0.0,-6.6677779629938325e-06,1.6669444907484581e-06,0,0,0,44.93
71472,0.005000833472245374,-0.00886481080180028,-9.808911105184198,0.0,-6.6677779629938325e-06,1.6669444907484581e-06,0,0,0,44.75
71483,0.005000833472245374,-0.01886481080180029,-9.808911105184198,0.0,-6.6677779629938325e-06,1.6669444907484581e-06,0,0,0,45.31
71492,0.005000833472245374,-0.00886481080180028,-9.808911105184198,0.0,-6.6677779629938325e-06,1.6669444907484581e-06,0,0,0,45.0
71503,0.005000833472245374,0.0011351891981997153,-9.808911105184198,0.0,-6.6677779629938325e-06,1.6669444907484581e-06,0,0,0,45.0
71513,0.005000833472245374,0.0011351891981997153,-9.808911105184198,0.0,-6.6677779629938325e-06,1.6669444907484581e-06,0,0,0,45.0
71522,0.005000833472245374,0.0011351891981997153,-9.808911105184198,0.0,-6.6677779629938325e-06,1.6669444907484581e-06,0,0,0,45.0
71533,0.005000833472245374,0.0011351891981997153,-9.808911105184198,0.0,-6.6677779629938325e-06,1.6669444907484581e-06,0,0,0,45.0
71542,-0.004999166527754626,0.0011351891981997153,-9.808911105184198,0.0,-6.6677779629938325e-06,1.6669444907484581e-06,0,0,0,45.0
71553,-0.004999166527754626,0.01113518919819971,-9.808911105184198,0.0,-6.6677779629938325e-06,1.6669444907484581e-06,0,0,0,45.12
71563,-0.004999166527754626,0.01113518919819971,-9.808911105184198,0.0,-6.6677779629938325e-06,1.6669444907484581e-06,0,0,0,45.12
71572,0.005000833472245374,0.0011351891981997153,-9.818911105184197,0.0,-6.6677779629938325e-06,1.6669444907484581e-06,0,0,0,45.0
71583,0.005000833472245374,0.0011351891981997153,-9.818911105184197,0.0,-6.6677779629938325e-06,1.6669444907484581e-06,0,0,0,45.25
71592,0.005000833472245374,0.0011351891981997153,-9.818911105184197,0.0,-6.6677779629938325e-06,1.6669444907484581e-06,0,0,0,45.25
71603,0.005000833472245374,0.0011351891981997153,-9.818911105184197,0.0,-6.6677779629938325e-06,1.6669444907484581e-06,0,0,0,45.0
71613,0.005000833472245374,0.01113518919819971,-9.818911105184197,0.0,-6.6677779629938325e-06,1.6669444907484581e-06,0,0,0,45.06
71622,0.005000833472245374,0.01113518919819971,-9.808911105184198,0.0,-6.6677779629938325e-06,1.6669444907484581e-06,0,0,0,45.0
71633,-0.004999166527754626,0.0011351891981997153,-9.808911105184198,0.0,-6.6677779629938325e-06,1.6669444907484581e-06,0,0,0,45.12
71642,-0.004999166527754626,0.0011351891981997153,-9.808911105184198,0.0,-6.6677779629938325e-06,1.6669444907484581e-06,0,0,0,45.0
71653,-0.004999166527754626,0.0011351891981997153,-9.808911105184198,0.0,-6.6677779629938325e-06,1.6669444907484581e-06,0,0,0,45.0
71663,-0.004999166527754626,0.0011351891981997153,-9.808911105184198,0.0,-6.6677779629938325e-06,1.6669444907484581e-06,0,0,0,45.12
71672,0.005000833472245374,0.0011351891981997153,-9.798911105184198,0.0,-6.6677779629938325e-06,1.6669444907484581e-06,0,0,0,45.06
71683,-0.004999166527754626,-0.00886481080180028,-9.808911105184198,0.0,-6.6677779629938325e-06,1.6669444907484581e-06,0,0,0,45.12
71692,-0.004999166527754626,-0.00886481080180028,-9.818911105184197,0.0,-6.6677779629938325e-06,1.6669444907484581e-06,0,0,0,44.93
71703,-0.004999166527754626,0.0011351891981997153,-9.808911105184198,0.0,-6.6677779629938325e-06,1.6669444907484581e-06,0,0,0,45.0
71713,-0.004999166527754626,0.0011351891981997153,-9.798911105184198,0.0,-6.6677779629938325e-06,1.6669444907484581e-06,0,0,0,45.0
71722,-0.004999166527754626,-0.00886481080180028,-9.808911105184198,0.0,-6.6677779629938325e-06,1.6669444907484581e-06,0,0,0,44.93
71733,-0.004999166527754626,-0.00886481080180028,-9.808911105184198,0.0,-6.6677779629938325e-06,1.6669444907484581e-06,0,0,0,44.93
71742,0.005000833472245374,0.0011351891981997153,-9.818911105184197,0.0,-6.6677779629938325e-06,1.6669444907484581e-06,0,0,0,44.93
71753,-0.004999166527754626,0.01113518919819971,-9.808911105184198,0.0,-6.6677779629938325e-06,1.6669444907484581e-06,0,0,0,45.06
71763,-0.004999166527754626,0.0011351891981997153,-9.808911105184198,0.0,-6.6677779629938325e-06,1.6669444907484581e-06,0,0,0,45.12
71772,-0.004999166527754626,0.0011351891981997153,-9.808911105184198,0.0,-6.6677779629938325e-06,1.6669444907484581e-06,0,0,0,45.37
71783,0.005000833472245374,0.0011351891981997153,-9.808911105184198,0.0,-6.6677779629938325e-06,1.6669444907484581e-06,0,0,0,45.12
71792,0.005000833472245374,0.0011351891981997153,-9.818911105184197,0.0,-6.6677779629938325e-06,1.6669444907484581e-06,0,0,0,44.93
71803,0.005000833472245374,0.01113518919819971,-9.818911105184197,0.0,-6.6677779629938325e-06,1.6669444907484581e-06,0,0,0,44.62
71813,-0.004999166527754626,0.0011351891981997153,-9.818911105184197,0.0,-6.6677779629938325e-06,1.6669444907484581e-06,0,0,0,45.0
71822,-0.004999166527754626,0.0011351891981997153,-9.818911105184197,0.0,-6.6677779629938325e-06,1.6669444907484581e-06,0,0,0,45.12
71833,-0.004999166527754626,0.0011351891981997153,-9.808911105184198,0.0,-6.6677779629938325e-06,1.6669444907484581e-06,0,0,0,44.87
71842,0.005000833472245374,-0.00886481080180028,-9.808911105184198,0.0,-6.6677779629938325e-06,1.6669444907484581e-06,0,0,0,45.12
71853,0.005000833472245374,0.0011351891981997153,-9.808911105184198,0.0,-6.6677779629938325e-06,1.6669444907484581e-06,0,0,0,44.87
71863,-0.004999166527754626,0.0011351891981997153,-9.808911105184198,0.0,-6.6677779629938325e-06,1.6669444907484581e-06,0,0,0,44.87
71872,-0.004999166527754626,0.0011351891981997153,-9.818911105184197,0.0,-6.6677779629938325e-06,1.6669444907484581e-06,0,0,0,44.75
71883,-0.004999166527754626,0.0011351891981997153,-9.818911105184197,0.0,-6.6677779629938325e-06,1.6669444907484581e-06,0,0,0,45.06
71892,-0.004999166527754626,0.0011351891981997153,-9.798911105184198,0.0,-6.6677779629938325e-06,1.6669444907484581e-06,0,0,0,45.06
71903,0.005000833472245374,0.0011351891981997153,-9.808911105184198,0.0,-6.6677779629938325e-06,1.6669444907484581e-06,0,0,0,45.0
71913,-0.004999166527754626,0.0011351891981997153,-9.808911105184198,0.0,-6.6677779629938325e-06,1.6669444907484581e-06,0,0,0,44.87
71922,-0.004999166527754626,0.0011351891981997153,-9.808911105184198,0.0,-6.6677779629938325e-06,1.6669444907484581e-06,0,0,0,45.0
71933,0.005000833472245374,0.0011351891981997153,-9.808911105184198,0.0,-6.6677779629938325e-06,1.6669444907484581e-06,0,0,0,44.93
71942,0.005000833472245374,-0.00886481080180028,-9.818911105184197,0.0,-6.6677779629938325e-06,1.6669444907484581e-06,0,0,0,44.93
71953,-0.004999166527754626,0.0011351891981997153,-9.818911105184197,0.0,-6.6677779629938325e-06,1.6669444907484581e-06,0,0,0,45.06
71963,0.005000833472245374,-0.00886481080180028,-9.818911105184197,0.0,-6.6677779629938325e-06,1.6669444907484581e-06,0,0,0,45.12
71972,0.005000833472245374,0.0011351891981997153,-9.818911105184197,0.0,-6.6677779629938325e-06,1.6669444907484581e-06,0,0,0,45.06
71983,0.005000833472245374,0.0011351891981997153,-9.818911105184197,0.0,-6.6677779629938325e-06,1.6669444907484581e-06,0,0,0,45.06
71992,0.005000833472245374,0.0011351891981997153,-9.808911105184198,0.0,-6.6677779629938325e-06,1.6669444907484581e-06,0,0,0,44.93
72003,0.005000833472245374,0.01113518919819971,-9.818911105184197,0.0,-6.6677779629938325e-06,1.6669444907484581e-06,0,0,0,44.87
72013,-0.004999166527754626,0.01113518919819971,-9.818911105184197,0.0,-6.6677779629938325e-06,1.6669444907484581e-06,0,0,0,45.12
72022,-0.004999166527754626,-0.00886481080180028,-9.808911105184198,0.0,-6.6677779629938325e-06,1.6669444907484581e-06,0,0,0,45.06
72033,0.005000833472245374,-0.00886481080180028,-9.808911105184198,0.0,-6.6677779629938325e-06,1.6669444907484581e-06,0,0,0,45.25
72042,0.005000833472245374,0.0011351891981997153,-9.798911105184198,0.0,-6.6677779629938325e-06,1.6669444907484581e-06,0,0,0,45.0
72053,-0.004999166527754626,0.01113518919819971,-9.808911105184198,0.0,-6.6677779629938325e-06,1.6669444907484581e-06,0,0,0,45.06
72063,-0.004999166527754626,0.0011351891981997153,-9.808911105184198,0.0,-6.6677779629938325e-06,1.6669444907484581e-06,0,0,0,45.0
72072,0.005000833472245374,0.0011351891981997153,-9.798911105184198,0.0,-6.6677779629938325e-06,1.6669444907484581e-06,0,0,0,45.0
72083,-0.004999166527754626,0.0011351891981997153,-9.798911105184198,0.0,-6.6677779629938325e-06,1.6669444907484581e-06,0,0,0,45.0
72092,-0.004999166527754626,0.0011351891981997153,-9.808911105184198,0.0,-6.6677779629938325e-06,1.6669444907484581e-06,0,0,0,45.12
72103,-0.004999166527754626,0.0011351891981997153,-9.808911105184198,0.0,-6.6677779629938325e-06,1.6669444907484581e-06,0,0,0,45.0
72113,0.005000833472245374,-0.00886481080180028,-9.818911105184197,0.0,-6.6677779629938325e-06,1.6669444907484581e-06,0,0,0,45.25
72122,0.005000833472245374,-0.00886481080180028,-9.818911105184197,0.0,-6.6677779629938325e-06,1.6669444907484581e-06,0,0,0,44.87
72133,0.005000833472245374,0.0011351891981997153,-9.808911105184198,0.0,-6.6677779629938325e-06,1.6669444907484581e-06,0,0,0,45.0
72142,0.005000833472245374,0.0011351891981997153,-9.808911105184198,0.0,-6.6677779629938325e-06,1.6669444907484581e-06,0,0,0,45.31
72153,0.005000833472245374,0.0011351891981997153,-9.808911105184198,0.0,-6.6677779629938325e-06,1.6669444907484581e-06,0,0,0,45.31
72163,0.005000833472245374,0.0011351891981997153,-9.808911105184198,0.0,-6.6677779629938325e-06,1.6669444907484581e-06,0,0,0,44.87
72172,0.005000833472245374,0.0011351891981997153,-9.808911105184198,0.0,-6.6677779629938325e-06,1.6669444907484581e-06,0,0,0,45.12
72183,-0.004999166527754626,0.0011351891981997153,-9.808911105184198,0.0,-6.6677779629938325e-06,1.6669444907484581e-06,0,0,0,45.0
72192,-0.004999166527754626,0.0011351891981997153,-9.808911105184198,0.0,-6.6677779629938325e-06,1.6669444907484581e-06,0,0,0,44.87
72203,0.005000833472245374,0.0011351891981997153,-9.818911105184197,0.0,-6.6677779629938325e-06,1.6669444907484581e-06,0,0,0,44.81
72213,0.005000833472245374,0.0011351891981997153,-9.818911105184197,0.0,-6.6677779629938325e-06,1.6669444907484581e-06,0,0,0,45.0
72222,0.005000833472245374,0.0011351891981997153,-9.808911105184198,0.0,-6.6677779629938325e-06,1.6669444907484581e-06,0,0,0,44.75
72233,0.005000833472245374,0.0011351891981997153,-9.818911105184197,0.0,-6.6677779629938325e-06,1.6669444907484581e-06,0,0,0,44.93
72242,0.005000833472245374,0.0011351891981997153,-9.808911105184198,0.0,-6.6677779629938325e-06,1.6669444907484581e-06,0,0,0,45.0
72253,0.005000833472245374,0.0011351891981997153,-9.808911105184198,0.0,-6.6677779629938325e-06,1.6669444907484581e-06,0,0,0,44.93
72263,0.005000833472245374,0.0011351891981997153,-9.818911105184197,0.0,-6.6677779629938325e-06,1.6669444907484581e-06,0,0,0,45.25
72272,0.005000833472245374,-0.00886481080180028,-9.808911105184198,0.0,-6.6677779629938325e-06,1.6669444907484581e-06,0,0,0,45.12
72283,0.005000833472245374,-0.00886481080180028,-9.808911105184198,0.0,-6.6677779629938325e-06,1.6669444907484581e-06,0,0,0,45.12
72292,0.005000833472245374,0.0011351891981997153,-9.808911105184198,0.0,-6.6677779629938325e-06,1.6669444907484581e-06,0,0,0,45.12
72303,-0.004999166527754626,0.0011351891981997153,-9.808911105184198,0.0,-6.6677779629938325e-06,1.6669444907484581e-06,0,0,0,45.06
72313,-0.004999166527754626,0.0011351891981997153,-9.808911105184198,0.0,-6.6677779629938325e-06,1.6669444907484581e-06,0,0,0,45.0
72322,-0.014999166527754626,0.0011351891981997153,-9.808911105184198,0.0,-6.6677779629938325e-06,1.6669444907484581e-06,0,0,0,45.06
72333,0.005000833472245374,0.0011351891981997153,-9.808911105184198,0.0,-6.6677779629938325e-06,1.6669444907484581e-06,0,0,0,44.93
72342,-0.004999166527754626,0.0011351891981997153,-9.808911105184198,0.0,-6.6677779629938325e-06,1.6669444907484581e-06,0,0,0,45.0
72353,-0.004999166527754626,0.0011351891981997153,-9.818911105184197,0.0,-6.6677779629938325e-06,1.6669444907484581e-06,0,0,0,45.06
72363,0.005000833472245374,-0.00886481080180028,-9.808911105184198,0.0,-6.6677779629938325e-06,1.6669444907484581e-06,0,0,0,45.06
72372,-0.004999166527754626,-0.00886481080180028,-9.818911105184197,0.0,-6.6677779629938325e-06,1.6669444907484581e-06,0,0,0,45.0
72383,-0.004999166527754626,0.0011351891981997153,-9.818911105184197,0.0,-6.6677779629938325e-06,1.6669444907484581e-06,0,0,0,44.93
72392,-0.004999166527754626,0.0011351891981997153,-9.808911105184198,0.0,-6.6677779629938325e-06,1.6669444907484581e-06,0,0,0,44.93
72403,-0.004999166527754626,0.0011351891981997153,-9.808911105184198,0.0,-6.6677779629938325e-06,1.6669444907484581e-06,0,0,0,45.0
72413,-0.004999166527754626,0.0011351891981997153,-9.808911105184198,0.0,-6.6677779629938325e-06,1.6669444907484581e-06,0,0,0,44.75
72422,0.005000833472245374,0.0011351891981997153,-9.818911105184197,0.0,-6.6677779629938325e-06,1.6669444907484581e-06,0,0,0,45.0
72433,0.005000833472245374,-0.00886481080180028,-9.818911105184197,0.0,-6.6677779629938325e-06,1.6669444907484581e-06,0,0,0,45.0
72442,0.005000833472245374,0.0011351891981997153,-9.818911105184197,0.0,-6.6677779629938325e-06,1.6669444907484581e-06,0,0,0,45.06
72453,0.005000833472245374,0.0011351891981997153,-9.818911105184197,0.0,-6.6677779629938325e-06,1.6669444907484581e-06,0,0,0,45.25
72463,0.005000833472245374,0.0011351891981997153,-9.808911105184198,0.0,-6.6677779629938325e-06,1.6669444907484581e-06,0,0,0,45.12
72472,-0.004999166527754626,0.01113518919819971,-9.808911105184198,0.0,-6.6677779629938325e-06,1.6669444907484581e-06,0,0,0,44.93
72483,-0.004999166527754626,0.01113518919819971,-9.808911105184198,0.0,-6.6677779629938325e-06,1.6669444907484581e-06,0,0,0,45.0
72492,0.005000833472245374,0.01113518919819971,-9.808911105184198,0.0,-6.6677779629938325e-06,1.6669444907484581e-06,0,0,0,45.12
72503,-0.004999166527754626,0.01113518919819971,-9.808911105184198,0.0,-6.6677779629938325e-06,1.6669444907484581e-06,0,0,0,44.81
72513,0.005000833472245374,0.0011351891981997153,-9.818911105184197,0.0,-6.6677779629938325e-06,1.6669444907484581e-06,0,0,0,45.0
72522,0.005000833472245374,0.0011351891981997153,-9.818911105184197,0.0,-6.6677779629938325e-06,1.6669444907484581e-06,0,0,0,45.12
72533,-0.004999166527754626,0.0011351891981997153,-9.818911105184197,0.0,-6.6677779629938325e-06,1.6669444907484581e-06,0,0,0,44.93
72542,0.005000833472245374,0.0011351891981997153,-9.818911105184197,0.0,0.009993332222037006,1.6669444907484581e-06,0,0,0,45.0
72553,0.005000833472245374,0.0011351891981997153,-9.818911105184197,0.0,-6.6677779629938325e-06,1.6669444907484581e-06,0,0,0,45.25
72563,0.005000833472245374,0.0011351891981997153,-9.808911105184198,0.0,-6.6677779629938325e-06,1.6669444907484581e-06,0,0,0,45.0
72572,0.005000833472245374,-0.00886481080180028,-9.818911105184197,0.0,-6.6677779629938325e-06,1.6669444907484581e-06,0,0,0,45.0
72583,-0.004999166527754626,-0.00886481080180028,-9.818911105184197,0.0,-6.6677779629938325e-06,1.6669444907484581e-06,0,0,0,45.31
72592,0.005000833472245374,0.0011351891981997153,-9.818911105184197,0.0,-6.6677779629938325e-06,1.6669444907484581e-06,0,0,0,45.06
72603,-0.004999166527754626,0.0011351891981997153,-9.818911105184197,0.0,-6.6677779629938325e-06,1.6669444907484581e-06,0,0,0,45.12
72613,-0.004999166527754626,0.01113518919819971,-9.808911105184198,0.0,-6.6677779629938325e-06,1.6669444907484581e-06,0,0,0,45.0
72622,0.005000833472245374,0.01113518919819971,-9.808911105184198,0.0,-6.6677779629938325e-06,1.6669444907484581e-06,0,0,0,45.0
72633,0.005000833472245374,0.0011351891981997153,-9.818911105184197,0.0,-6.6677779629938325e-06,1.6669444907484581e-06,0,0,0,45.06
72642,0.005000833472245374,0.0011351891981997153,-9.818911105184197,0.0,-6.6677779629938325e-06,1.6669444907484581e-06,0,0,0,45.0
72653,0.005000833472245374,0.0011351891981997153,-9.808911105184198,0.0,-6.6677779629938325e-06,1.6669444907484581e-06,0,0,0,45.25
72663,0.005000833472245374,0.0011351891981997153,-9.808911105184198,0.0,-6.6677779629938325e-06,1.6669444907484581e-06,0,0,0,44.75
72672,0.005000833472245374,0.0011351891981997153,-9.798911105184198,0.0,-6.6677779629938325e-06,1.6669444907484581e-06,0,0,0,44.93
72683,0.005000833472245374,0.0011351891981997153,-9.798911105184198,0.0,-6.6677779629938325e-06,1.6669444907484581e-06,0,0,0,45.0
72692,-0.004999166527754626,0.0011351891981997153,-9.808911105184198,0.0,-6.6677779629938325e-06,1.6669444907484581e-06,0,0,0,45.06
72703,-0.014999166527754626,0.0011351891981997153,-9.818911105184197,0.0,-6.6677779629938325e-06,1.6669444907484581e-06,0,0,0,45.0
72713,-0.014999166527754626,0.0011351891981997153,-9.808911105184198,0.0,-6.6677779629938325e-06,1.6669444907484581e-06,0,0,0,45.0
72722,-0.004999166527754626,0.0011351891981997153,-9.808911105184198,0.0,-6.6677779629938325e-06,1.6669444907484581e-06,0,0,0,45.12
72733,-0.004999166527754626,0.0011351891981997153,-9.808911105184198,0.0,-6.6677779629938325e-06,1.6669444907484581e-06,0,0,0,44.93
72742,0.005000833472245374,0.0011351891981997153,-9.808911105184198,0.0,-6.6677779629938325e-06,1.6669444907484581e-06,0,0,0,45.0
72753,0.005000833472245374,0.0011351891981997153,-9.818911105184197,0.0,-6.6677779629938325e-06,1.6669444907484581e-06,0,0,0,45.12
72763,0.005000833472245374,0.0011351891981997153,-9.808911105184198,0.0,-6.6677779629938325e-06,1.6669444907484581e-06,0,0,0,45.0
72772,-0.004999166527754626,0.0011351891981997153,-9.808911105184198,0.0,-6.6677779629938325e-06,1.6669444907484581e-06,0,0,0,45.0
72783,0.005000833472245374,0.0011351891981997153,-9.808911105184198,0.0,-6.6677779629938325e-06,1.6669444907484581e-06,0,0,0,45.12
72792,0.005000833472245374,0.0011351891981997153,-9.808911105184198,0.0,-6.6677779629938325e-06,1.6669444907484581e-06,0,0,0,45.12
72803,0.005000833472245374,0.01113518919819971,-9.818911105184197,0.0,-6.6677779629938325e-06,1.6669444907484581e-06,0,0,0,45.0
72813,0.005000833472245374,0.0011351891981997153,-9.818911105184197,0.0,-6.6677779629938325e-06,1.6669444907484581e-06,0,0,0,45.06
72822,0.005000833472245374,-0.00886481080180028,-9.808911105184198,0.0,-6.6677779629938325e-06,1.6669444907484581e-06,0,0,0,45.25
72833,0.005000833472245374,-0.00886481080180028,-9.808911105184198,0.0,-6.6677779629938325e-06,1.6669444907484581e-06,0,0,0,45.0
72842,0.005000833472245374,0.0011351891981997153,-9.808911105184198,0.0,-6.6677779629938325e-06,1.6669444907484581e-06,0,0,0,45.06
72853,0.005000833472245374,0.0011351891981997153,-9.798911105184198,0.0,-6.6677779629938325e-06,1.6669444907484581e-06,0,0,0,45.0
72863,-0.004999166527754626,-0.00886481080180028,-9.798911105184198,0.0,-6.6677779629938325e-06,1.6669444907484581e-06,0,0,0,45.12
72872,-0.004999166527754626,-0.00886481080180028,-9.808911105184198,0.0,-6.6677779629938325e-06,1.6669444907484581e-06,0,0,0,45.06
72883,0.005000833472245374,0.0011351891981997153,-9.808911105184198,0.0,-6.6677779629938325e-06,1.6669444907484581e-06,0,0,0,45.0
72892,-0.004999166527754626,0.0011351891981997153,-9.818911105184197,0.0,-6.6677779629938325e-06,1.6669444907484581e-06,0,0,0,44.87
72903,-0.004999166527754626,0.01113518919819971,-9.818911105184197,0.0,-6.6677779629938325e-06,1.6669444907484581e-06,0,0,0,45.0
72913,-0.004999166527754626,0.0011351891981997153,-9.818911105184197,0.0,-6.6677779629938325e-06,1.6669444907484581e-06,0,0,0,45.06
72922,-0.004999166527754626,0.0011351891981997153,-9.808911105184198,0.0,-6.6677779629938325e-06,1.6669444907484581e-06,0,0,0,45.12
72933,-0.004999166527754626,0.0011351891981997153,-9.808911105184198,0.0,-6.6677779629938325e-06,1.6669444907484581e-06,0,0,0,45.12
72942,-0.004999166527754626,0.0011351891981997153,-9.808911105184198,0.0,-6.6677779629938325e-06,1.6669444907484581e-06,0,0,0,45.0
72953,0.005000833472245374,0.0011351891981997153,-9.808911105184198,0.0,-6.6677779629938325e-06,1.6669444907484581e-06,0,0,0,45.0
72963,0.005000833472245374,0.0011351891981997153,-9.818911105184197,0.0,-6.6677779629938325e-06,1.6669444907484581e-06,0,0,0,45.25
72972,0.005000833472245374,0.0011351891981997153,-9.818911105184197,0.0,-6.6677779629938325e-06,1.6669444907484581e-06,0,0,0,45.0
72983,0.005000833472245374,-0.00886481080180028,-9.808911105184198,0.0,-6.6677779629938325e-06,1.6669444907484581e-06,0,0,0,44.93
72992,-0.004999166527754626,0.0011351891981997153,-9.808911105184198,0.0,-6.6677779629938325e-06,1.6669444907484581e-06,0,0,0,44.81
73003,0.005000833472245374,0.01113518919819971,-9.808911105184198,0.0,-6.6677779629938325e-06,1.6669444907484581e-06,0,0,0,45.0
73013,0.005000833472245374,0.0011351891981997153,-9.808911105184198,0.0,-6.6677779629938325e-06,1.6669444907484581e-06,0,0,0,45.0
73022,0.005000833472245374,-0.00886481080180028,-9.808911105184198,0.0,-6.6677779629938325e-06,1.6669444907484581e-06,0,0,0,45.12
73033,-0.004999166527754626,-0.00886481080180028,-9.808911105184198,0.0,-6.6677779629938325e-06,1.6669444907484581e-06,0,0,0,45.0
73042,-0.004999166527754626,0.0011351891981997153,-9.818911105184197,0.0,-6.6677779629938325e-06,1.6669444907484581e-06,0,0,0,45.37
73053,0.005000833472245374,0.0011351891981997153,-9.818911105184197,0.0,-6.6677779629938325e-06,1.6669444907484581e-06,0,0,0,44.87
73063,0.005000833472245374,0.0011351891981997153,-9.818911105184197,0.0,-6.6677779629938325e-06,1.6669444907484581e-06,0,0,0,45.12
73072,-0.004999166527754626,0.0011351891981997153,-9.808911105184198,0.0,-6.6677779629938325e-06,1.6669444907484581e-06,0,0,0,45.0
73083,-0.004999166527754626,-0.00886481080180028,-9.808911105184198,0.0,-6.6677779629938325e-06,1.6669444907484581e-06,0,0,0,45.0
73092,-0.004999166527754626,0.0011351891981997153,-9.818911105184197,0.0,-6.6677779629938325e-06,1.6669444907484581e-06,0,0,0,45.12
73103,0.005000833472245374,0.0011351891981997153,-9.818911105184197,0.0,-6.6677779629938325e-06,1.6669444907484581e-06,0,0,0,45.0
73113,-0.004999166527754626,0.0011351891981997153,-9.818911105184197,0.0,-6.6677779629938325e-06,1.6669444907484581e-06,0,0,0,44.93
73122,-0.004999166527754626,-0.00886481080180028,-9.808911105184198,0.0,-6.6677779629938325e-06,1.6669444907484581e-06,0,0,0,45.0
73133,0.005000833472245374,-0.00886481080180028,-9.808911105184198,0.0,-6.6677779629938325e-06,1.6669444907484581e-06,0,0,0,45.12
73142,0.005000833472245374,-0.00886481080180028,-9.818911105184197,0.0,-6.6677779629938325e-06,1.6669444907484581e-06,0,0,0,45.12
73153,0.005000833472245374,0.0011351891981997153,-9.818911105184197,0.0,-6.6677779629938325e-06,1.6669444907484581e-06,0,0,0,45.12
73163,0.005000833472245374,0.01113518919819971,-9.808911105184198,0.0,-6.6677779629938325e-06,1.6669444907484581e-06,0,0,0,45.0
73172,-0.004999166527754626,0.0011351891981997153,-9.808911105184198,0.0,-6.6677779629938325e-06,1.6669444907484581e-06,0,0,0,45.12
73183,-0.004999166527754626,0.0011351891981997153,-9.818911105184197,0.0,-6.6677779629938325e-06,1.6669444907484581e-06,0,0,0,44.87
73192,0.005000833472245374,0.0011351891981997153,-9.818911105184197,0.0,-6.6677779629938325e-06,1.6669444907484581e-06,0,0,0,45.0
73203,0.005000833472245374,0.01113518919819971,-9.818911105184197,0.0,-6.6677779629938325e-06,1.6669444907484581e-06,0,0,0,45.12
73213,0.005000833472245374,0.01113518919819971,-9.808911105184198,0.0,-6.6677779629938325e-06,1.6669444907484581e-06,0,0,0,45.25
73222,0.005000833472245374,0.0011351891981997153,-9.808911105184198,0.0,-6.6677779629938325e-06,1.6669444907484581e-06,0,0,0,44.87
73233,-0.004999166527754626,0.0011351891981997153,-9.808911105184198,0.0,-6.6677779629938325e-06,1.6669444907484581e-06,0,0,0,45.0
73242,-0.004999166527754626,0.0011351891981997153,-9.818911105184197,0.0,-6.6677779629938325e-06,1.6669444907484581e-06,0,0,0,45.12
73253,-0.004999166527754626,0.0011351891981997153,-9.818911105184197,0.0,-6.6677779629938325e-06,1.6669444907484581e-06,0,0,0,45.0
73263,-0.004999166527754626,0.0011351891981997153,-9.818911105184197,0.0,-6.6677779629938325e-06,1.6669444907484581e-06,0,0,0,45.12
73272,-0.004999166527754626,-0.00886481080180028,-9.808911105184198,0.0,-6.6677779629938325e-06,1.6669444907484581e-06,0,0,0,45.0
73283,0.005000833472245374,0.0011351891981997153,-9.808911105184198,0.0,-6.6677779629938325e-06,1.6669444907484581e-06,0,0,0,45.06
73292,0.005000833472245374,0.0011351891981997153,-9.818911105184197,0.0,-6.6677779629938325e-06,1.6669444907484581e-06,0,0,0,45.25
73303,0.005000833472245374,0.01113518919819971,-9.818911105184197,0.0,-6.6677779629938325e-06,1.6669444907484581e-06,0,0,0,45.0
73313,0.005000833472245374,0.01113518919819971,-9.808911105184198,0.0,-6.6677779629938325e-06,1.6669444907484581e-06,0,0,0,44.93
73322,0.005000833472245374,-0.00886481080180028,-9.808911105184198,0.0,-6.6677779629938325e-06,1.6669444907484581e-06,0,0,0,45.12
73333,0.005000833472245374,-0.00886481080180028,-9.808911105184198,0.0,-6.6677779629938325e-06,1.6669444907484581e-06,0,0,0,45.12
73342,0.005000833472245374,0.0011351891981997153,-9.818911105184197,0.0,-6.6677779629938325e-06,1.6669444907484581e-06,0,0,0,45.0
73353,0.005000833472245374,0.01113518919819971,-9.818911105184197,0.0,-6.6677779629938325e-06,1.6669444907484581e-06,0,0,0,45.0
73363,0.005000833472245374,0.0011351891981997153,-9.808911105184198,0.0,-6.6677779629938325e-06,1.6669444907484581e-06,0,0,0,44.81
73372,0.005000833472245374,0.0011351891981997153,-9.808911105184198,0.0,-6.6677779629938325e-06,1.6669444907484581e-06,0,0,0,45.12
73383,0.005000833472245374,-0.00886481080180028,-9.818911105184197,0.0,-6.6677779629938325e-06,1.6669444907484581e-06,0,0,0,45.0
73392,0.005000833472245374,-0.00886481080180028,-9.818911105184197,0.0,-6.6677779629938325e-06,1.6669444907484581e-06,0,0,0,44.93
73403,0.005000833472245374,0.0011351891981997153,-9.818911105184197,0.0,-6.6677779629938325e-06,1.6669444907484581e-06,0,0,0,45.0
73413,0.005000833472245374,0.0011351891981997153,-9.818911105184197,0.0,-6.6677779629938325e-06,1.6669444907484581e-06,0,0,0,45.12
73422,0.005000833472245374,-0.00886481080180028,-9.808911105184198,0.0,-6.6677779629938325e-06,1.6669444907484581e-06,0,0,0,45.0
73433,0.005000833472245374,-0.00886481080180028,-9.808911105184198,0.0,-6.6677779629938325e-06,1.6669444907484581e-06,0,0,0,44.81
73442,0.005000833472245374,0.0011351891981997153,-9.808911105184198,0.0,-6.6677779629938325e-06,1.6669444907484581e-06,0,0,0,45.25
73453,-0.004999166527754626,0.0011351891981997153,-9.808911105184198,0.0,-6.6677779629938325e-06,1.6669444907484581e-06,0,0,0,44.87
73463,-0.004999166527754626,0.0011351891981997153,-9.818911105184197,0.0,-6.6677779629938325e-06,1.6669444907484581e-06,0,0,0,45.25
73472,-0.004999166527754626,0.0011351891981997153,-9.808911105184198,0.0,-6.6677779629938325e-06,1.6669444907484581e-06,0,0,0,45.0
73483,-0.004999166527754626,0.0011351891981997153,-9.808911105184198,0.0,-6.6677779629938325e-06,1.6669444907484581e-06,0,0,0,44.93
73492,0.005000833472245374,0.0011351891981997153,-9.808911105184198,0.0,-6.6677779629938325e-06,1.6669444907484581e-06,0,0,0,44.93
73503,0.005000833472245374,0.0011351891981997153,-9.818911105184197,0.0,-6.6677779629938325e-06,1.6669444907484581e-06,0,0,0,45.12
73513,0.005000833472245374,0.0011351891981997153,-9.818911105184197,0.0,-6.6677779629938325e-06,1.6669444907484581e-06,0,0,0,45.12
73522,0.005000833472245374,0.0011351891981997153,-9.828911105184197,0.0,-6.6677779629938325e-06,1.6669444907484581e-06,0,0,0,44.87
73533,-0.004999166527754626,0.0011351891981997153,-9.818911105184197,0.0,-6.6677779629938325e-06,1.6669444907484581e-06,0,0,0,45.0
73542,-0.004999166527754626,0.0011351891981997153,-9.818911105184197,0.0,-6.6677779629938325e-06,1.6669444907484581e-06,0,0,0,45.12
73553,-0.004999166527754626,0.0011351891981997153,-9.818911105184197,0.0,-6.6677779629938325e-06,1.6669444907484581e-06,0,0,0,45.25
73563,-0.004999166527754626,0.0011351891981997153,-9.818911105184197,0.0,-6.6677779629938325e-06,1.6669444907484581e-06,0,0,0,44.87
73572,0.005000833472245374,0.0011351891981997153,-9.818911105184197,0.0,-6.6677779629938325e-06,1.6669444907484581e-06,0,0,0,45.0
73583,0.005000833472245374,0.0011351891981997153,-9.808911105184198,0.0,-6.6677779629938325e-06,1.6669444907484581e-06,0,0,0,45.0
73592,0.005000833472245374,0.0011351891981997153,-9.808911105184198,0.0,-6.6677779629938325e-06,1.6669444907484581e-06,0,0,0,45.06
73603,0.005000833472245374,0.0011351891981997153,-9.798911105184198,0.0,-6.6677779629938325e-06,1.6669444907484581e-06,0,0,0,45.0
73613,0.005000833472245374,0.0011351891981997153,-9.808911105184198,0.0,-6.6677779629938325e-06,1.6669444907484581e-06,0,0,0,45.0
73622,0.005000833472245374,0.01113518919819971,-9.808911105184198,0.0,-6.6677779629938325e-06,1.6669444907484581e-06,0,0,0,45.12
73633,0.005000833472245374,0.0011351891981997153,-9.808911105184198,0.0,-6.6677779629938325e-06,1.6669444907484581e-06,0,0,0,45.06
73642,-0.004999166527754626,-0.00886481080180028,-9.808911105184198,0.0,-6.6677779629938325e-06,1.6669444907484581e-06,0,0,0,45.0
73653,-0.004999166527754626,-0.00886481080180028,-9.808911105184198,0.0,-6.6677779629938325e-06,1.6669444907484581e-06,0,0,0,45.25
73663,0.005000833472245374,-0.00886481080180028,-9.808911105184198,0.0,-6.6677779629938325e-06,1.6669444907484581e-06,0,0,0,45.0
73672,0.005000833472245374,-0.00886481080180028,-9.818911105184197,0.0,-6.6677779629938325e-06,1.6669444907484581e-06,0,0,0,44.81
73683,0.005000833472245374,0.0011351891981997153,-9.808911105184198,0.0,-6.6677779629938325e-06,1.6669444907484581e-06,0,0,0,44.75
73692,-0.004999166527754626,-0.00886481080180028,-9.798911105184198,-0.01,0.009993332222037006,1.6669444907484581e-06,0,0,0,45.12
73703,0.005000833472245374,0.0011351891981997153,-9.808911105184198,0.0,-6.6677779629938325e-06,1.6669444907484581e-06,0,0,0,45.0
73713,-0.004999166527754626,0.0011351891981997153,-9.808911105184198,0.02,-0.030006667777962993,1.6669444907484581e-06,0,0,0,45.0
73722,-0.004999166527754626,0.0011351891981997153,-9.808911105184198,0.04,-0.030006667777962993,1.6669444907484581e-06,0,0,0,45.12
73733,0.005000833472245374,0.01113518919819971,-9.798911105184198,0.07,-0.050006667777963,1.6669444907484581e-06,0,0,0,45.12
73742,-0.004999166527754626,0.0011351891981997153,-9.808911105184198,0.11,-0.06000666777796299,1.6669444907484581e-06,0,0,0,44.93
73753,-0.004999166527754626,0.01113518919819971,-9.818911105184197,0.13,-0.030006667777962993,1.6669444907484581e-06,0,0,0,45.0
73763,-0.004999166527754626,0.0011351891981997153,-9.828911105184197,0.12,-0.020006667777962995,1.6669444907484581e-06,0,0,0,45.06
73772,-0.004999166527754626,-0.01886481080180029,-9.828911105184197,0.09,-0.010006667777962995,1.6669444907484581e-06,0,0,0,45.0
73783,-0.004999166527754626,-0.038864810801800286,-9.818911105184197,0.02,-6.6677779629938325e-06,1.6669444907484581e-06,0,0,0,45.0
73792,-0.024999166527754624,-0.038864810801800286,-9.808911105184198,-0.08,0.029993332222037004,1.6669444907484581e-06,0,0,0,44.93
73803,-0.004999166527754626,0.01113518919819971,-9.808911105184198,-0.12,0.059993332222037,0.010001666944490749,0,0,0,44.87
73813,-0.004999166527754626,-0.00886481080180028,-9.808911105184198,-0.11,0.04999333222203701,1.6669444907484581e-06,0,0,0,45.0
73822,0.005000833472245374,0.0011351891981997153,-9.808911105184198,-0.14,0.04999333222203701,1.6669444907484581e-06,0,0,0,45.12
73833,0.005000833472245374,0.0011351891981997153,-9.798911105184198,-0.05,0.029993332222037004,1.6669444907484581e-06,0,0,0,44.93
73842,0.005000833472245374,0.0011351891981997153,-9.808911105184198,-0.02,0.019993332222037006,1.6669444907484581e-06,0,0,0,45.12
73853,-0.004999166527754626,-0.00886481080180028,-9.808911105184198,0.0,0.039993332222037006,1.6669444907484581e-06,0,0,0,44.93
73863,-0.004999166527754626,-0.00886481080180028,-9.808911105184198,0.0,0.04999333222203701,1.6669444907484581e-06,0,0,0,45.0
73872,-0.004999166527754626,-0.00886481080180028,-9.808911105184198,-0.02,0.06999333222203702,1.6669444907484581e-06,0,0,0,45.12
73883,0.005000833472245374,0.0011351891981997153,-9.798911105184198,-0.03,0.08999333222203701,1.6669444907484581e-06,0,0,0,44.87
73892,0.005000833472245374,0.01113518919819971,-9.788911105184198,-0.02,0.06999333222203702,1.6669444907484581e-06,0,0,0,45.0
73903,0.005000833472245374,0.01113518919819971,-9.798911105184198,0.0,0.029993332222037004,1.6669444907484581e-06,0,0,0,44.87
73913,-0.024999166527754624,-0.00886481080180028,-9.808911105184198,-0.01,0.059993332222037,-0.009998333055509252,0,0,0,44.93
73922,-0.004999166527754626,0.0011351891981997153,-9.808911105184198,-0.02,0.10999333222203701,1.6669444907484581e-06,0,0,0,45.12
73933,0.005000833472245374,0.01113518919819971,-9.808911105184198,0.02,0.09999333222203702,-0.009998333055509252,0,0,0,45.0
73942,0.015000833472245375,0.0011351891981997153,-9.818911105184197,0.05,0.07999333222203701,-0.039998333055509254,0,0,0,44.93
73953,0.005000833472245374,0.0011351891981997153,-9.818911105184197,0.05,0.04999333222203701,-0.049998333055509256,0,0,0,45.0
73963,-0.014999166527754626,0.0011351891981997153,-9.808911105184198,0.05,0.08999333222203701,-0.07999833305550925,0,0,0,45.0
73972,0.005000833472245374,-0.00886481080180028,-9.818911105184197,0.07,0.11999333222203701,-0.11999833305550925,0,0,0,44.87
73983,0.025000833472245375,0.0011351891981997153,-9.808911105184198,0.07,0.07999333222203701,-0.10999833305550925,0,0,0,45.06
73992,0.015000833472245375,0.0011351891981997153,-9.808911105184198,0.08,0.04999333222203701,-0.07999833305550925,0,0,0,45.25
74003,0.005000833472245374,0.01113518919819971,-9.808911105184198,0.1,0.019993332222037006,-0.039998333055509254,0,0,0,45.06
74013,0.015000833472245375,0.01113518919819971,-9.818911105184197,0.14,-0.030006667777962993,-0.019998333055509254,0,0,0,45.12
74022,0.005000833472245374,0.0011351891981997153,-9.818911105184197,0.16,-0.070006667777963,-0.019998333055509254,0,0,0,45.0
74033,0.005000833472245374,-0.00886481080180028,-9.818911105184197,0.17,-0.070006667777963,-0.019998333055509254,0,0,0,45.12
74042,0.005000833472245374,-0.00886481080180028,-9.818911105184197,0.17,-0.070006667777963,-0.009998333055509252,0,0,0,45.31
74053,0.005000833472245374,-0.00886481080180028,-9.818911105184197,0.16,-0.050006667777963,-0.009998333055509252,0,0,0,45.0
74063,0.005000833472245374,-0.01886481080180029,-9.818911105184197,0.14,-0.030006667777962993,-0.009998333055509252,0,0,0,45.25
74072,0.005000833472245374,-0.01886481080180029,-9.818911105184197,0.11,-6.6677779629938325e-06,-0.009998333055509252,0,0,0,45.0
74083,0.005000833472245374,-0.028864810801800284,-9.808911105184198,0.07,0.009993332222037006,1.6669444907484581e-06,0,0,0,45.31
74092,0.005000833472245374,-0.00886481080180028,-9.808911105184198,0.1,-6.6677779629938325e-06,1.6669444907484581e-06,0,0,0,44.93
74103,0.005000833472245374,-0.01886481080180029,-9.808911105184198,0.12,-0.010006667777962995,1.6669444907484581e-06,0,0,0,45.12
74113,0.005000833472245374,-0.028864810801800284,-9.818911105184197,0.09,-6.6677779629938325e-06,-0.009998333055509252,0,0,0,45.0
74122,0.005000833472245374,-0.028864810801800284,-9.818911105184197,0.05,-6.6677779629938325e-06,-0.009998333055509252,0,0,0,44.93
74133,0.005000833472245374,-0.01886481080180029,-9.828911105184197,0.02,-6.6677779629938325e-06,1.6669444907484581e-06,0,0,0,44.93
74142,0.005000833472245374,-0.01886481080180029,-9.818911105184197,0.02,-6.6677779629938325e-06,1.6669444907484581e-06,0,0,0,45.0
74153,0.005000833472245374,-0.01886481080180029,-9.808911105184198,0.03,-0.010006667777962995,1.6669444907484581e-06,0,0,0,45.12
74163,0.005000833472245374,-0.00886481080180028,-9.808911105184198,0.03,-0.040006667777962995,1.6669444907484581e-06,0,0,0,45.0
74172,0.005000833472245374,-0.01886481080180029,-9.818911105184197,0.03,-0.06000666777796299,1.6669444907484581e-06,0,0,0,45.0
74183,0.005000833472245374,-0.028864810801800284,-9.828911105184197,0.02,-0.06000666777796299,1.6669444907484581e-06,0,0,0,45.0
74192,0.005000833472245374,-0.038864810801800286,-9.818911105184197,0.0,-0.050006667777963,1.6669444907484581e-06,0,0,0,45.0
74203,0.005000833472245374,-0.038864810801800286,-9.808911105184198,-0.01,-0.030006667777962993,1.6669444907484581e-06,0,0,0,45.0
74213,0.005000833472245374,-0.01886481080180029,-9.808911105184198,-0.01,-0.020006667777962995,1.6669444907484581e-06,0,0,0,45.12
74222,0.005000833472245374,-0.01886481080180029,-9.808911105184198,-0.01,-0.010006667777962995,1.6669444907484581e-06,0,0,0,45.25
74233,0.005000833472245374,-0.028864810801800284,-9.808911105184198,-0.02,-0.020006667777962995,1.6669444907484581e-06,0,0,0,45.12
74242,0.005000833472245374,-0.01886481080180029,-9.818911105184197,-0.03,-0.030006667777962993,0.010001666944490749,0,0,0,45.06
74253,0.005000833472245374,-0.01886481080180029,-9.808911105184198,-0.03,-0.050006667777963,0.020001666944490747,0,0,0,45.06
74263,0.005000833472245374,-0.01886481080180029,-9.808911105184198,-0.02,-0.070006667777963,0.010001666944490749,0,0,0,44.93
74272,0.005000833472245374,-0.01886481080180029,-9.808911105184198,-0.02,-0.070006667777963,0.010001666944490749,0,0,0,45.06
74283,0.005000833472245374,-0.028864810801800284,-9.808911105184198,-0.05,-0.06000666777796299,0.010001666944490749,0,0,0,45.12
74292,-0.004999166527754626,-0.01886481080180029,-9.808911105184198,-0.07,-0.040006667777962995,0.010001666944490749,0,0,0,45.0
74303,-0.004999166527754626,-0.01886481080180029,-9.808911105184198,-0.09,-6.6677779629938325e-06,0.010001666944490749,0,0,0,45.0
74313,-0.004999166527754626,-0.01886481080180029,-9.818911105184197,-0.08,0.019993332222037006,0.010001666944490749,0,0,0,45.25
74322,0.005000833472245374,-0.01886481080180029,-9.818911105184197,-0.08,0.039993332222037006,0.010001666944490749,0,0,0,45.0
74333,0.005000833472245374,-0.01886481080180029,-9.818911105184197,-0.07,0.029993332222037004,0.010001666944490749,0,0,0,44.87
74342,0.005000833472245374,-0.00886481080180028,-9.808911105184198,-0.06,0.009993332222037006,1.6669444907484581e-06,0,0,0,45.0
74353,0.005000833472245374,-0.00886481080180028,-9.808911105184198,-0.03,-0.010006667777962995,0.010001666944490749,0,0,0,45.06
74363,0.005000833472245374,-0.00886481080180028,-9.808911105184198,-0.01,-0.020006667777962995,0.010001666944490749,0,0,0,45.12
74372,0.005000833472245374,0.0011351891981997153,-9.808911105184198,0.01,-0.020006667777962995,0.010001666944490749,0,0,0,45.06
74383,0.005000833472245374,-0.00886481080180028,-9.808911105184198,0.04,-0.010006667777962995,1.6669444907484581e-06,0,0,0,45.12
74392,-0.004999166527754626,-0.00886481080180028,-9.818911105184197,0.04,-6.6677779629938325e-06,1.6669444907484581e-06,0,0,0,45.12
74403,-0.004999166527754626,-0.01886481080180029,-9.818911105184197,0.02,-6.6677779629938325e-06,1.6669444907484581e-06,0,0,0,45.0
74413,0.005000833472245374,-0.028864810801800284,-9.808911105184198,0.01,-0.010006667777962995,1.6669444907484581e-06,0,0,0,45.0
74422,0.005000833472245374,-0.028864810801800284,-9.808911105184198,-0.01,-6.6677779629938325e-06,1.6669444907484581e-06,0,0,0,45.12
74433,-0.004999166527754626,-0.028864810801800284,-9.808911105184198,-0.04,-6.6677779629938325e-06,1.6669444907484581e-06,0,0,0,45.0
74442,-0.004999166527754626,-0.028864810801800284,-9.808911105184198,-0.1,0.009993332222037006,0.010001666944490749,0,0,0,45.0
74453,-0.004999166527754626,-0.01886481080180029,-9.818911105184197,-0.12,0.019993332222037006,0.010001666944490749,0,0,0,45.0
74463,0.005000833472245374,-0.00886481080180028,-9.818911105184197,-0.11,0.029993332222037004,0.010001666944490749,0,0,0,45.0
74472,0.005000833472245374,0.01113518919819971,-9.808911105184198,-0.06,0.019993332222037006,0.020001666944490747,0,0,0,45.12
74483,0.005000833472245374,0.02113518919819972,-9.798911105184198,0.04,-6.6677779629938325e-06,1.6669444907484581e-06,0,0,0,44.93
74492,-0.004999166527754626,-0.00886481080180028,-9.798911105184198,0.11,-6.6677779629938325e-06,1.6669444907484581e-06,0,0,0,45.25
74503,-0.004999166527754626,-0.00886481080180028,-9.808911105184198,0.13,-6.6677779629938325e-06,1.6669444907484581e-06,0,0,0,45.12
74513,-0.004999166527754626,-0.028864810801800284,-9.808911105184198,0.11,0.009993332222037006,0.010001666944490749,0,0,0,45.25
74522,-0.004999166527754626,-0.028864810801800284,-9.808911105184198,0.05,0.019993332222037006,0.010001666944490749,0,0,0,45.0
74533,-0.004999166527754626,-0.01886481080180029,-9.818911105184197,0.0,0.039993332222037006,0.020001666944490747,0,0,0,45.12
74542,0.005000833472245374,0.0011351891981997153,-9.808911105184198,0.0,0.039993332222037006,0.020001666944490747,0,0,0,45.0
74553,0.005000833472245374,0.0011351891981997153,-9.808911105184198,0.02,0.019993332222037006,0.020001666944490747,0,0,0,45.12
74563,0.005000833472245374,-0.00886481080180028,-9.808911105184198,0.05,-6.6677779629938325e-06,0.010001666944490749,0,0,0,45.0
74572,0.005000833472245374,-0.00886481080180028,-9.798911105184198,0.07,-0.010006667777962995,0.010001666944490749,0,0,0,45.12
74583,-0.004999166527754626,-0.028864810801800284,-9.808911105184198,0.08,-0.010006667777962995,0.020001666944490747,0,0,0,44.93
74592,0.005000833472245374,-0.028864810801800284,-9.808911105184198,0.06,-6.6677779629938325e-06,0.020001666944490747,0,0,0,45.0
74603,0.005000833472245374,-0.01886481080180029,-9.818911105184197,0.04,0.019993332222037006,0.04000166694449075,0,0,0,45.12
74613,-0.004999166527754626,-0.01886481080180029,-9.818911105184197,0.02,0.019993332222037006,0.07000166694449075,0,0,0,44.87
74622,0.005000833472245374,-0.01886481080180029,-9.808911105184198,0.02,0.009993332222037006,0.08000166694449075,0,0,0,45.0
74633,0.005000833472245374,-0.01886481080180029,-9.808911105184198,0.02,-6.6677779629938325e-06,0.07000166694449075,0,0,0,45.0
74642,0.005000833472245374,-0.01886481080180029,-9.808911105184198,0.02,-6.6677779629938325e-06,0.07000166694449075,0,0,0,45.25
74653,0.005000833472245374,-0.028864810801800284,-9.818911105184197,0.01,-6.6677779629938325e-06,0.060001666944490745,0,0,0,45.0
74663,0.005000833472245374,-0.01886481080180029,-9.808911105184198,0.01,-0.010006667777962995,0.10000166694449075,0,0,0,44.75
74672,0.015000833472245375,-0.01886481080180029,-9.808911105184198,0.01,-0.020006667777962995,0.2600016669444908,0,0,0,45.06
74683,0.08500083347224538,0.0011351891981997153,-9.808911105184198,0.0,-6.6677779629938325e-06,0.5800016669444907,0,0,0,45.06
74692,0.4250008334722454,0.01113518919819971,-9.808911105184198,0.02,0.019993332222037006,2.5900016669444907,0,0,0,45.0
74703,0.41500083347224537,0.04113518919819971,-9.808911105184198,0.06,0.009993332222037006,6.440001666944491,0,0,0,45.0
74713,-0.03499916652775463,0.0011351891981997153,-9.808911105184198,0.08,-0.020006667777962995,8.17000166694449,0,0,0,45.06
74722,-0.4149991665277546,-0.07886481080180029,-9.808911105184198,0.05,-0.040006667777962995,6.290001666944491,0,0,0,45.12
74733,-0.4049991665277546,-0.07886481080180029,-9.808911105184198,0.0,-0.030006667777962993,2.640001666944491,0,0,0,45.06
74742,-0.14499916652775463,-0.04886481080180029,-9.818911105184197,-0.01,-0.010006667777962995,0.42000166694449076,0,0,0,44.87
74753,-0.004999166527754626,-0.028864810801800284,-9.818911105184197,-0.02,-6.6677779629938325e-06,-0.19999833305550926,0,0,0,45.12
74763,0.06500083347224538,0.0011351891981997153,-9.808911105184198,-0.02,0.009993332222037006,-0.029998333055509252,0,0,0,45.0
74772,0.5750008334722453,0.04113518919819971,-9.818911105184197,0.02,0.029993332222037004,2.950001666944491,0,0,0,45.0
74783,0.2850008334722454,0.05113518919819972,-9.818911105184197,0.11,-0.010006667777962995,7.230001666944491,0,0,0,44.87
74792,-0.3549991665277546,-0.06886481080180029,-9.798911105184198,0.12,-0.050006667777963,6.8100016669444905,0,0,0,45.25
74803,-0.4249991665277546,-0.08886481080180028,-9.808911105184198,0.05,-0.010006667777962995,2.7800016669444907,0,0,0,45.0
74813,-0.14499916652775463,-0.06886481080180029,-9.818911105184197,-0.01,0.009993332222037006,0.29000166694449075,0,0,0,45.0
74822,0.005000833472245374,-0.038864810801800286,-9.808911105184198,-0.06,0.019993332222037006,-0.2999983330555092,0,0,0,45.0
74833,0.015000833472245375,-0.028864810801800284,-9.808911105184198,-0.07,0.029993332222037004,-0.16999833305550927,0,0,0,44.93
74842,0.005000833472245374,-0.01886481080180029,-9.808911105184198,-0.06,0.029993332222037004,0.010001666944490749,0,0,0,45.0
74853,0.005000833472245374,-0.00886481080180028,-9.798911105184198,-0.04,0.019993332222037006,0.07000166694449075,0,0,0,45.12
74863,0.005000833472245374,-0.01886481080180029,-9.808911105184198,-0.02,-6.6677779629938325e-06,0.07000166694449075,0,0,0,45.0
74872,0.005000833472245374,-0.028864810801800284,-9.808911105184198,0.0,-0.010006667777962995,0.04000166694449075,0,0,0,45.06
74883,0.005000833472245374,-0.028864810801800284,-9.808911105184198,0.0,-0.020006667777962995,0.030001666944490746,0,0,0,45.0
74892,0.09500083347224537,-0.028864810801800284,-9.818911105184197,0.0,-6.6677779629938325e-06,0.3300016669444908,0,0,0,44.68
74903,0.6250008334722453,-0.028864810801800284,-9.818911105184197,0.05,-6.6677779629938325e-06,5.8500016669444905,0,0,0,45.0
74913,0.4250008334722454,0.05113518919819972,-9.818911105184197,0.13,-0.040006667777962995,12.36000166694449,0,0,0,44.87
74922,-0.14499916652775463,0.031135189198199714,-9.818911105184197,0.11,-0.050006667777963,13.86000166694449,0,0,0,45.12
74933,-0.3749991665277546,-0.038864810801800286,-9.818911105184197,0.06,-0.030006667777962993,10.51000166694449,0,0,0,44.93
74942,-0.16499916652775465,-0.04886481080180029,-9.808911105184198,0.04,-0.020006667777962995,7.6000016669444905,0,0,0,45.06
74953,0.025000833472245375,-0.028864810801800284,-9.818911105184197,0.05,-0.020006667777962995,7.030001666944491,0,0,0,45.06
74963,0.10500083347224538,-0.00886481080180028,-9.818911105184197,0.08,-0.040006667777962995,7.920001666944491,0,0,0,44.93
74972,0.015000833472245375,0.01113518919819971,-9.808911105184198,0.12,-0.050006667777963,8.46000166694449,0,0,0,44.87
74983,-0.10499916652775462,0.01113518919819971,-9.808911105184198,0.14,-0.040006667777962995,7.500001666944491,0,0,0,44.87
74992,-0.18499916652775464,-0.038864810801800286,-9.798911105184198,0.13,-0.030006667777962993,5.280001666944491,0,0,0,45.06
75003,-0.08499916652775462,-0.028864810801800284,-9.808911105184198,0.1,-0.020006667777962995,3.2800016669444907,0,0,0,45.12
75013,0.17500083347224538,0.02113518919819972,-9.818911105184197,0.09,-0.010006667777962995,3.490001666944491,0,0,0,44.81
75022,0.2650008334722454,0.06113518919819973,-9.818911105184197,0.1,-0.030006667777962993,5.760001666944491,0,0,0,45.0
75033,0.12500083347224536,0.02113518919819972,-9.808911105184198,0.1,-0.040006667777962995,7.740001666944491,0,0,0,45.12
75042,0.015000833472245375,-0.05886481080180028,-9.808911105184198,0.07,-0.06000666777796299,8.24000166694449,0,0,0,45.12
75053,-0.024999166527754624,-0.07886481080180029,-9.808911105184198,0.03,-0.070006667777963,7.950001666944491,0,0,0,45.0
75063,0.015000833472245375,-0.04886481080180029,-9.818911105184197,0.0,-0.06000666777796299,7.700001666944491,0,0,0,45.0
75072,-0.014999166527754626,-0.04886481080180029,-9.828911105184197,-0.02,-0.040006667777962995,7.980001666944491,0,0,0,45.12
75083,-0.13499916652775465,-0.06886481080180029,-9.818911105184197,-0.05,-0.020006667777962995,7.740001666944491,0,0,0,45.0
75092,-0.19499916652775465,-0.07886481080180029,-9.798911105184198,-0.07,-6.6677779629938325e-06,6.550001666944491,0,0,0,45.0
75103,-0.14499916652775463,-0.07886481080180029,-9.798911105184198,-0.08,-6.6677779629938325e-06,5.300001666944491,0,0,0,45.12
75113,-0.08499916652775462,-0.05886481080180028,-9.808911105184198,-0.08,-6.6677779629938325e-06,4.890001666944491,0,0,0,45.12
75122,-0.06499916652775463,-0.04886481080180029,-9.808911105184198,-0.05,-6.6677779629938325e-06,5.250001666944491,0,0,0,45.0
75133,-0.09499916652775463,-0.05886481080180028,-9.808911105184198,-0.05,-0.010006667777962995,5.3500016669444905,0,0,0,44.93
75142,-0.03499916652775463,-0.038864810801800286,-9.808911105184198,-0.05,-0.030006667777962993,5.480001666944491,0,0,0,44.93
75153,0.07500083347224538,-0.028864810801800284,-9.818911105184197,-0.01,-0.070006667777963,6.620001666944491,0,0,0,45.12
75163,0.17500083347224538,-0.01886481080180029,-9.818911105184197,0.03,-0.09000666777796298,8.39000166694449,0,0,0,45.25
75172,0.18500083347224536,-0.038864810801800286,-9.818911105184197,0.05,-0.100006667777963,9.95000166694449,0,0,0,45.12
75183,0.06500083347224538,-0.038864810801800286,-9.818911105184197,0.04,-0.09000666777796298,10.19000166694449,0,0,0,45.0
75192,-0.07499916652775462,-0.028864810801800284,-9.808911105184198,0.03,-0.070006667777963,8.70000166694449,0,0,0,45.0
75203,-0.09499916652775463,-0.01886481080180029,-9.808911105184198,0.01,-0.050006667777963,6.670001666944491,0,0,0,44.87
75213,0.015000833472245375,-0.028864810801800284,-9.818911105184197,0.01,-0.040006667777962995,6.120001666944491,0,0,0,44.93
75222,0.12500083347224536,-0.028864810801800284,-9.818911105184197,0.03,-0.040006667777962995,7.8500016669444905,0,0,0,44.93
75233,0.20500083347224538,0.01113518919819971,-9.818911105184197,0.08,-0.050006667777963,10.91000166694449,0,0,0,45.12
75242,0.15500083347224536,0.08113518919819972,-9.818911105184197,0.1,-0.070006667777963,13.88000166694449,0,0,0,45.0
75253,-0.004999166527754626,0.08113518919819972,-9.808911105184198,0.09,-0.070006667777963,14.74000166694449,0,0,0,45.06
75263,-0.15499916652775464,0.02113518919819972,-9.808911105184198,0.05,-0.06000666777796299,13.80000166694449,0,0,0,45.0
75272,-0.22499916652775465,-0.038864810801800286,-9.808911105184198,0.01,-0.040006667777962995,12.28000166694449,0,0,0,45.12
75283,-0.2849991665277546,-0.05886481080180028,-9.808911105184198,0.0,-0.030006667777962993,10.85000166694449,0,0,0,44.93
75292,-0.2949991665277546,-0.07886481080180029,-9.818911105184197,0.0,-0.010006667777962995,9.47000166694449,0,0,0,45.25
75303,-0.2849991665277546,-0.05886481080180028,-9.818911105184197,-0.01,0.009993332222037006,7.950001666944491,0,0,0,45.0
75313,-0.18499916652775464,-0.01886481080180029,-9.808911105184198,0.0,0.029993332222037004,6.3100016669444905,0,0,0,45.43
75322,-0.13499916652775465,0.01113518919819971,-9.808911105184198,0.03,0.009993332222037006,5.900001666944491,0,0,0,44.93
75333,-0.05499916652775462,0.0011351891981997153,-9.808911105184198,0.07,-0.010006667777962995,6.380001666944491,0,0,0,44.93
75342,-0.014999166527754626,-0.00886481080180028,-9.808911105184198,0.08,-0.030006667777962993,6.790001666944491,0,0,0,44.93
75353,0.005000833472245374,-0.00886481080180028,-9.808911105184198,0.11,-0.050006667777963,7.760001666944491,0,0,0,45.06
75363,0.07500083347224538,-0.05886481080180028,-9.818911105184197,0.1,-0.070006667777963,8.89000166694449,0,0,0,45.12
75372,0.05500083347224538,-0.038864810801800286,-9.818911105184197,0.08,-0.06000666777796299,9.09000166694449,0,0,0,44.93
75383,0.05500083347224538,-0.01886481080180029,-9.808911105184198,0.09,-0.040006667777962995,8.96000166694449,0,0,0,45.0
75392,0.03500083347224538,-0.028864810801800284,-9.808911105184198,0.09,-0.040006667777962995,8.84000166694449,0,0,0,45.12
75403,-0.014999166527754626,-0.04886481080180029,-9.808911105184198,0.07,-0.030006667777962993,8.37000166694449,0,0,0,44.93
75413,-0.024999166527754624,-0.06886481080180029,-9.808911105184198,0.05,-0.030006667777962993,7.760001666944491,0,0,0,44.93
75422,-0.06499916652775463,-0.04886481080180029,-9.808911105184198,0.04,-0.030006667777962993,7.680001666944491,0,0,0,45.25
75433,-0.03499916652775463,-0.04886481080180029,-9.818911105184197,0.04,-0.040006667777962995,7.910001666944491,0,0,0,45.31
75442,-0.004999166527754626,-0.05886481080180028,-9.808911105184198,0.03,-0.050006667777963,8.11000166694449,0,0,0,45.25
75453,0.005000833472245374,-0.038864810801800286,-9.808911105184198,0.04,-0.050006667777963,8.54000166694449,0,0,0,45.0
75463,0.03500083347224538,-0.028864810801800284,-9.818911105184197,0.06,-0.06000666777796299,9.38000166694449,0,0,0,44.87
75472,0.03500083347224538,-0.04886481080180029,-9.818911105184197,0.07,-0.06000666777796299,10.06000166694449,0,0,0,45.12
75483,0.08500083347224538,-0.07886481080180029,-9.818911105184197,0.07,-0.06000666777796299,10.52000166694449,0,0,0,45.0
75492,0.07500083347224538,-0.08886481080180028,-9.818911105184197,0.06,-0.06000666777796299,10.87000166694449,0,0,0,45.0
75503,0.015000833472245375,-0.06886481080180029,-9.818911105184197,0.06,-0.050006667777963,10.60000166694449,0,0,0,45.0
75513,0.005000833472245374,-0.05886481080180028,-9.818911105184197,0.07,-0.040006667777962995,10.21000166694449,0,0,0,45.0
75522,0.005000833472245374,-0.05886481080180028,-9.818911105184197,0.07,-0.030006667777962993,9.96000166694449,0,0,0,45.0
75533,0.015000833472245375,-0.038864810801800286,-9.808911105184198,0.06,-0.020006667777962995,9.50000166694449,0,0,0,45.12
75542,0.025000833472245375,-0.05886481080180028,-9.808911105184198,0.06,-0.030006667777962993,9.01000166694449,0,0,0,45.0
75553,0.04500083347224537,-0.07886481080180029,-9.808911105184198,0.03,-0.040006667777962995,8.69000166694449,0,0,0,45.0
75563,0.04500083347224537,-0.07886481080180029,-9.818911105184197,0.01,-0.050006667777963,8.97000166694449,0,0,0,45.12
75572,0.08500083347224538,-0.07886481080180029,-9.818911105184197,0.02,-0.050006667777963,9.79000166694449,0,0,0,44.93
75583,0.11500083347224538,-0.10886481080180029,-9.808911105184198,0.02,-0.06000666777796299,10.64000166694449,0,0,0,45.0
75592,0.04500083347224537,-0.09886481080180029,-9.818911105184197,0.0,-0.070006667777963,10.60000166694449,0,0,0,45.0
75603,-0.05499916652775462,-0.038864810801800286,-9.818911105184197,0.0,-0.06000666777796299,9.01000166694449,0,0,0,45.12
75613,-0.06499916652775463,-0.038864810801800286,-9.818911105184197,0.0,-0.050006667777963,7.090001666944491,0,0,0,45.06
75622,-0.014999166527754626,-0.04886481080180029,-9.818911105184197,0.0,-0.040006667777962995,6.360001666944491,0,0,0,45.0
75633,0.06500083347224538,-0.07886481080180029,-9.808911105184198,0.0,-0.06000666777796299,6.970001666944491,0,0,0,45.0
75642,0.08500083347224538,-0.07886481080180029,-9.808911105184198,0.0,-0.06000666777796299,8.13000166694449,0,0,0,45.0
75653,0.08500083347224538,-0.08886481080180028,-9.808911105184198,0.01,-0.070006667777963,8.85000166694449,0,0,0,45.12
75663,0.04500083347224537,-0.07886481080180029,-9.808911105184198,0.01,-0.08000666777796299,9.09000166694449,0,0,0,45.12
75672,0.025000833472245375,-0.07886481080180029,-9.808911105184198,0.01,-0.070006667777963,8.79000166694449,0,0,0,44.93
75683,-0.004999166527754626,-0.04886481080180029,-9.808911105184198,0.01,-0.06000666777796299,8.42000166694449,0,0,0,45.06
75692,-0.05499916652775462,0.01113518919819971,-9.808911105184198,0.02,-0.040006667777962995,8.25000166694449,0,0,0,45.0
75703,-0.09499916652775463,0.0011351891981997153,-9.818911105184197,0.01,-0.030006667777962993,8.22000166694449,0,0,0,45.31
75713,-0.13499916652775465,0.031135189198199714,-9.818911105184197,0.0,-0.020006667777962995,7.710001666944491,0,0,0,45.12
75722,-0.09499916652775463,0.01113518919819971,-9.818911105184197,0.0,-0.030006667777962993,7.070001666944491,0,0,0,44.81
75733,-0.05499916652775462,-0.01886481080180029,-9.808911105184198,0.01,-0.030006667777962993,6.580001666944491,0,0,0,45.12
75742,-0.024999166527754624,-0.05886481080180028,-9.808911105184198,0.0,-0.040006667777962995,6.640001666944491,0,0,0,44.93
75753,0.025000833472245375,-0.07886481080180029,-9.818911105184197,0.01,-0.050006667777963,7.370001666944491,0,0,0,45.12
75763,0.09500083347224537,-0.08886481080180028,-9.818911105184197,0.05,-0.040006667777962995,8.61000166694449,0,0,0,45.12
75772,0.15500083347224536,-0.10886481080180029,-9.818911105184197,0.09,-0.050006667777963,10.45000166694449,0,0,0,44.87
75783,0.17500083347224538,-0.09886481080180029,-9.818911105184197,0.09,-0.050006667777963,12.42000166694449,0,0,0,45.25
75792,0.07500083347224538,-0.06886481080180029,-9.818911105184197,0.06,-0.070006667777963,13.73000166694449,0,0,0,45.31
75803,-0.014999166527754626,-0.04886481080180029,-9.818911105184197,0.03,-0.06000666777796299,13.78000166694449,0,0,0,44.87
75813,-0.06499916652775463,-0.038864810801800286,-9.818911105184197,0.0,-0.06000666777796299,13.05000166694449,0,0,0,45.0
75822,-0.16499916652775465,0.031135189198199714,-9.808911105184198,-0.03,-0.050006667777963,12.00000166694449,0,0,0,44.87
75833,-0.27499916652775463,0.07113518919819971,-9.808911105184198,-0.11,-0.06000666777796299,10.58000166694449,0,0,0,45.0
75842,-0.2549991665277546,0.04113518919819971,-9.798911105184198,-0.15,-0.06000666777796299,8.98000166694449,0,0,0,45.25
75853,-0.17499916652775463,-0.01886481080180029,-9.798911105184198,-0.16,-0.070006667777963,8.09000166694449,0,0,0,45.12
75863,-0.05499916652775462,-0.028864810801800284,-9.798911105184198,-0.12,-0.070006667777963,7.3100016669444905,0,0,0,45.0
75872,0.03500083347224538,-0.028864810801800284,-9.808911105184198,-0.07,-0.070006667777963,5.820001666944491,0,0,0,45.12
75883,0.025000833472245375,-0.04886481080180029,-9.808911105184198,-0.05,-0.06000666777796299,4.550001666944491,0,0,0,45.0
75892,0.015000833472245375,-0.06886481080180029,-9.808911105184198,-0.03,-0.050006667777963,3.890001666944491,0,0,0,44.87
75903,0.005000833472245374,-0.05886481080180028,-9.818911105184197,0.0,-0.030006667777962993,3.7600016669444907,0,0,0,44.87
75913,-0.03499916652775463,-0.01886481080180029,-9.828911105184197,0.0,-0.020006667777962995,3.750001666944491,0,0,0,45.0
75922,-0.12499916652775463,0.12113518919819972,-9.818911105184197,-0.01,-0.010006667777962995,3.0500016669444907,0,0,0,45.12
75933,-0.08499916652775462,0.12113518919819972,-9.818911105184197,0.0,0.009993332222037006,1.2300016669444906,0,0,0,45.0
75942,-0.024999166527754624,0.01113518919819971,-9.818911105184197,0.0,0.009993332222037006,0.15000166694449074,0,0,0,45.37
75953,-0.014999166527754626,-0.038864810801800286,-9.818911105184197,0.0,-6.6677779629938325e-06,-0.10999833305550925,0,0,0,45.12
75963,-0.014999166527754626,-0.04886481080180029,-9.818911105184197,0.0,-6.6677779629938325e-06,-0.049998333055509256,0,0,0,45.12
75972,-0.05499916652775462,-0.5388648108018003,-9.818911105184197,0.11,-6.6677779629938325e-06,2.230001666944491,0,0,0,45.0
75983,0.06500083347224538,-0.9588648108018003,-9.828911105184197,0.15,-0.030006667777962993,11.31000166694449,0,0,0,44.87
75992,0.13500083347224537,-0.28886481080180026,-9.818911105184197,0.12,-0.09000666777796298,18.620001666944493,0,0,0,45.12
76003,0.005000833472245374,0.4011351891981997,-9.798911105184198,0.08,-0.100006667777963,16.70000166694449,0,0,0,45.12
76013,-0.05499916652775462,0.46113518919819974,-9.808911105184198,0.06,-0.06000666777796299,10.36000166694449,0,0,0,45.25
76022,-0.024999166527754624,0.14113518919819973,-9.808911105184198,0.07,-0.030006667777962993,6.530001666944491,0,0,0,45.31
76033,0.005000833472245374,-0.11886481080180028,-9.808911105184198,0.08,-0.020006667777962995,6.250001666944491,0,0,0,45.12
76042,-0.004999166527754626,-0.1288648108018003,-9.808911105184198,0.08,-0.020006667777962995,7.6000016669444905,0,0,0,44.87
76053,-0.05499916652775462,0.01113518919819971,-9.808911105184198,0.06,-0.030006667777962993,8.23000166694449,0,0,0,45.12
76063,-0.07499916652775462,0.1711351891981997,-9.798911105184198,0.03,-0.030006667777962993,6.900001666944491,0,0,0,45.0
76072,-0.07499916652775462,0.2711351891981997,-9.798911105184198,0.0,-0.020006667777962995,3.8400016669444907,0,0,0,44.81
76083,-0.044999166527754625,0.12113518919819972,-9.808911105184198,-0.01,-6.6677779629938325e-06,0.9600016669444907,0,0,0,44.93
76092,-0.024999166527754624,0.0011351891981997153,-9.818911105184197,-0.01,-6.6677779629938325e-06,-0.09999833305550926,0,0,0,44.93
76103,-0.044999166527754625,-0.05886481080180028,-9.808911105184198,-0.01,-6.6677779629938325e-06,-0.09999833305550926,0,0,0,45.12
76113,-0.4449991665277546,-0.6888648108018003,-9.808911105184198,0.0,-0.050006667777963,5.000001666944491,0,0,0,45.12
76122,-0.5349991665277547,-0.5388648108018003,-9.818911105184197,-0.02,-0.11000666777796299,13.93000166694449,0,0,0,44.93
76133,-0.23499916652775463,0.07113518919819971,-9.818911105184197,-0.02,-0.12000666777796298,17.31000166694449,0,0,0,45.0
76142,0.07500083347224538,0.3011351891981997,-9.808911105184198,-0.02,-0.100006667777963,14.55000166694449,0,0,0,45.0
76153,0.2850008334722454,0.3011351891981997,-9.818911105184197,-0.01,-0.08000666777796299,10.23000166694449,0,0,0,44.93
76163,0.3650008334722454,0.20113518919819973,-9.808911105184198,0.05,-0.040006667777962995,5.820001666944491,0,0,0,45.06
76172,0.2650008334722454,0.11113518919819972,-9.798911105184198,0.1,-0.010006667777962995,2.680001666944491,0,0,0,45.25
76183,0.05500083347224538,0.0011351891981997153,-9.808911105184198,0.11,-6.6677779629938325e-06,0.9200016669444908,0,0,0,45.0
76192,-0.23499916652775463,-0.24886481080180028,-9.808911105184198,0.1,-0.010006667777962995,2.630001666944491,0,0,0,45.0
76203,-0.3049991665277546,-0.28886481080180026,-9.818911105184197,0.05,-0.040006667777962995,7.170001666944491,0,0,0,45.31
76213,-0.14499916652775463,-0.11886481080180028,-9.818911105184197,0.02,-0.06000666777796299,10.44000166694449,0,0,0,45.0
76222,0.005000833472245374,-0.07886481080180029,-9.808911105184198,0.01,-0.08000666777796299,11.34000166694449,0,0,0,44.93
76233,0.08500083347224538,-0.07886481080180029,-9.808911105184198,-0.02,-0.100006667777963,10.77000166694449,0,0,0,45.25
76242,0.03500083347224538,-0.09886481080180029,-9.818911105184197,-0.04,-0.11000666777796299,9.93000166694449,0,0,0,45.0
76253,0.005000833472245374,-0.17886481080180028,-9.818911105184197,-0.06,-0.12000666777796298,10.18000166694449,0,0,0,45.12
76263,-0.06499916652775463,-0.1388648108018003,-9.808911105184198,-0.09,-0.130006667777963,11.20000166694449,0,0,0,44.87
76272,-0.08499916652775462,-0.08886481080180028,-9.808911105184198,-0.09,-0.12000666777796298,11.60000166694449,0,0,0,45.31
76283,-0.08499916652775462,-0.11886481080180028,-9.808911105184198,-0.07,-0.130006667777963,11.91000166694449,0,0,0,45.0
76292,-0.10499916652775462,-0.11886481080180028,-9.818911105184197,-0.06,-0.130006667777963,12.43000166694449,0,0,0,45.0
76303,-0.06499916652775463,-0.09886481080180029,-9.818911105184197,-0.04,-0.12000666777796298,12.67000166694449,0,0,0,45.12
76313,-0.004999166527754626,-0.08886481080180028,-9.808911105184198,-0.01,-0.11000666777796299,12.70000166694449,0,0,0,45.12
76322,0.04500083347224537,-0.05886481080180028,-9.808911105184198,0.0,-0.100006667777963,12.27000166694449,0,0,0,45.06
76333,0.06500083347224538,0.04113518919819971,-9.808911105184198,-0.02,-0.11000666777796299,11.42000166694449,0,0,0,44.75
76342,0.04500083347224537,0.07113518919819971,-9.818911105184197,-0.04,-0.100006667777963,10.26000166694449,0,0,0,44.81
76353,0.015000833472245375,0.13113518919819972,-9.818911105184197,-0.05,-0.09000666777796298,9.01000166694449,0,0,0,45.12
76363,-0.004999166527754626,0.11113518919819972,-9.818911105184197,-0.04,-0.08000666777796299,7.480001666944491,0,0,0,44.93
76372,-0.05499916652775462,-0.1488648108018003,-9.818911105184197,-0.02,-0.070006667777963,7.220001666944491,0,0,0,45.0
76383,-0.09499916652775463,-0.24886481080180028,-9.798911105184198,-0.03,-0.070006667777963,8.33000166694449,0,0,0,44.93
76392,-0.004999166527754626,-0.1288648108018003,-9.808911105184198,-0.01,-0.070006667777963,9.07000166694449,0,0,0,44.93
76403,-0.014999166527754626,-0.08886481080180028,-9.808911105184198,0.02,-0.070006667777963,9.09000166694449,0,0,0,45.0
76413,-0.03499916652775463,-0.01886481080180029,-9.808911105184198,0.04,-0.06000666777796299,8.74000166694449,0,0,0,44.93
76422,-0.03499916652775463,-0.01886481080180029,-9.818911105184197,0.05,-0.050006667777963,8.32000166694449,0,0,0,44.87
76433,-0.044999166527754625,0.11113518919819972,-9.818911105184197,0.04,-0.050006667777963,7.950001666944491,0,0,0,44.93
76442,-0.004999166527754626,0.20113518919819973,-9.808911105184198,0.02,-0.040006667777962995,7.1000016669444905,0,0,0,45.0
76453,0.015000833472245375,0.2311351891981997,-9.818911105184197,0.03,-0.030006667777962993,5.890001666944491,0,0,0,45.0
76463,-0.004999166527754626,0.10113518919819971,-9.818911105184197,0.06,-0.030006667777962993,5.050001666944491,0,0,0,45.12
76472,-0.07499916652775462,-0.1588648108018003,-9.808911105184198,0.07,-0.040006667777962995,5.390001666944491,0,0,0,45.0
76483,-0.09499916652775463,-0.1588648108018003,-9.808911105184198,0.05,-0.040006667777962995,6.480001666944491,0,0,0,44.93
76492,-0.06499916652775463,-0.04886481080180029,-9.808911105184198,0.05,-0.050006667777963,6.930001666944491,0,0,0,45.25
76503,-0.03499916652775463,-0.00886481080180028,-9.818911105184197,0.05,-0.040006667777962995,6.890001666944491,0,0,0,45.25
76513,-0.06499916652775463,-0.028864810801800284,-9.808911105184198,0.06,-0.040006667777962995,6.950001666944491,0,0,0,45.12
76522,-0.12499916652775463,-0.09886481080180029,-9.808911105184198,0.07,-0.040006667777962995,7.510001666944491,0,0,0,45.31
76533,-0.10499916652775462,-0.09886481080180029,-9.808911105184198,0.06,-0.050006667777963,8.27000166694449,0,0,0,45.12
76542,-0.09499916652775463,0.08113518919819972,-9.818911105184197,0.04,-0.06000666777796299,8.59000166694449,0,0,0,45.0
76553,-0.014999166527754626,0.2911351891981997,-9.808911105184198,0.02,-0.040006667777962995,7.830001666944491,0,0,0,45.25
76563,-0.03499916652775463,0.2411351891981997,-9.808911105184198,0.02,-0.030006667777962993,6.720001666944491,0,0,0,45.31
76572,-0.09499916652775463,0.11113518919819972,-9.808911105184198,0.02,-0.030006667777962993,6.090001666944491,0,0,0,45.12
76583,-0.16499916652775465,-0.028864810801800284,-9.798911105184198,0.01,-0.040006667777962995,6.190001666944491,0,0,0,45.12
76592,-0.21499916652775464,-0.07886481080180029,-9.808911105184198,0.0,-0.050006667777963,7.130001666944491,0,0,0,45.06
76603,-0.12499916652775463,0.0011351891981997153,-9.808911105184198,0.02,-0.06000666777796299,7.990001666944491,0,0,0,45.12
76613,0.08500083347224538,0.12113518919819972,-9.818911105184197,0.04,-0.050006667777963,7.830001666944491,0,0,0,44.93
76622,0.22500083347224537,0.20113518919819973,-9.818911105184197,0.05,-0.050006667777963,6.260001666944491,0,0,0,44.93
76633,-0.004999166527754626,0.07113518919819971,-9.808911105184198,0.01,-0.06000666777796299,5.180001666944491,0,0,0,45.25
76642,-0.3149991665277546,-0.08886481080180028,-9.798911105184198,-0.02,-0.08000666777796299,6.140001666944491,0,0,0,45.12
76653,-0.3149991665277546,-0.24886481080180028,-9.798911105184198,-0.04,-0.09000666777796298,8.46000166694449,0,0,0,45.06
76663,-0.044999166527754625,-0.17886481080180028,-9.808911105184198,-0.07,-0.09000666777796298,9.60000166694449,0,0,0,45.12
76672,0.015000833472245375,-0.1288648108018003,-9.808911105184198,-0.04,-0.09000666777796298,9.17000166694449,0,0,0,45.12
76683,-0.05499916652775462,-0.22886481080180027,-9.808911105184198,0.01,-0.09000666777796298,8.78000166694449,0,0,0,45.12
76692,-0.15499916652775464,-0.3688648108018003,-9.808911105184198,0.03,-0.09000666777796298,9.30000166694449,0,0,0,45.0
76703,-0.08499916652775462,-0.2788648108018003,-9.808911105184198,0.03,-0.09000666777796298,10.13000166694449,0,0,0,45.0
76713,0.08500083347224538,-0.028864810801800284,-9.818911105184197,0.03,-0.09000666777796298,9.96000166694449,0,0,0,45.12
76722,0.14500083347224538,0.19113518919819972,-9.818911105184197,0.02,-0.09000666777796298,8.74000166694449,0,0,0,44.93
76733,0.03500083347224538,0.14113518919819973,-9.818911105184197,0.02,-0.08000666777796299,7.730001666944491,0,0,0,45.0
76742,0.005000833472245374,0.08113518919819972,-9.798911105184198,0.02,-0.070006667777963,7.440001666944491,0,0,0,45.0
76753,0.11500083347224538,0.19113518919819972,-9.798911105184198,0.05,-0.050006667777963,6.790001666944491,0,0,0,44.93
76763,0.24500083347224536,0.3611351891981997,-9.808911105184198,0.09,-0.030006667777962993,4.910001666944491,0,0,0,44.93
76772,0.24500083347224536,0.3811351891981997,-9.808911105184198,0.11,-0.010006667777962995,2.3400016669444907,0,0,0,45.06
76783,0.05500083347224538,0.15113518919819974,-9.808911105184198,0.11,-6.6677779629938325e-06,0.4500016669444908,0,0,0,45.12
76792,-0.044999166527754625,0.0011351891981997153,-9.818911105184197,0.1,-6.6677779629938325e-06,-0.15999833305550926,0,0,0,45.12
76803,-0.06499916652775463,-0.038864810801800286,-9.808911105184198,0.1,-6.6677779629938325e-06,-0.13999833305550927,0,0,0,45.12
76813,-0.05499916652775462,-0.028864810801800284,-9.808911105184198,0.07,-6.6677779629938325e-06,-0.039998333055509254,0,0,0,45.12
76822,-0.05499916652775462,-0.01886481080180029,-9.818911105184197,0.05,-6.6677779629938325e-06,1.6669444907484581e-06,0,0,0,45.0
76833,-0.044999166527754625,-0.00886481080180028,-9.808911105184198,0.04,-6.6677779629938325e-06,0.010001666944490749,0,0,0,45.0
76842,-0.05499916652775462,-0.01886481080180029,-9.808911105184198,0.02,-6.6677779629938325e-06,1.6669444907484581e-06,0,0,0,45.0
76853,-0.044999166527754625,-0.028864810801800284,-9.818911105184197,0.0,-6.6677779629938325e-06,1.6669444907484581e-06,0,0,0,45.12
76863,-0.044999166527754625,-0.01886481080180029,-9.818911105184197,-0.01,-6.6677779629938325e-06,1.6669444907484581e-06,0,0,0,44.81
76872,-0.05499916652775462,-0.01886481080180029,-9.808911105184198,-0.01,-6.6677779629938325e-06,1.6669444907484581e-06,0,0,0,45.12
76883,-0.044999166527754625,-0.01886481080180029,-9.808911105184198,-0.01,-6.6677779629938325e-06,1.6669444907484581e-06,0,0,0,45.12
76892,-0.03499916652775463,-0.01886481080180029,-9.808911105184198,0.0,0.009993332222037006,1.6669444907484581e-06,0,0,0,45.12
76903,-0.05499916652775462,-0.01886481080180029,-9.808911105184198,0.0,0.009993332222037006,1.6669444907484581e-06,0,0,0,45.25
76913,-0.06499916652775463,-0.01886481080180029,-9.808911105184198,0.0,0.009993332222037006,1.6669444907484581e-06,0,0,0,45.25
76922,-0.05499916652775462,-0.01886481080180029,-9.808911105184198,0.0,-6.6677779629938325e-06,1.6669444907484581e-06,0,0,0,45.0
76933,-0.05499916652775462,-0.01886481080180029,-9.808911105184198,-0.01,-6.6677779629938325e-06,1.6669444907484581e-06,0,0,0,45.12
76942,-0.044999166527754625,-0.01886481080180029,-9.808911105184198,-0.01,-6.6677779629938325e-06,-0.009998333055509252,0,0,0,44.81
76953,-0.044999166527754625,-0.01886481080180029,-9.808911105184198,-0.01,-6.6677779629938325e-06,-0.009998333055509252,0,0,0,45.25
76963,-0.044999166527754625,-0.01886481080180029,-9.808911105184198,-0.01,-6.6677779629938325e-06,-0.009998333055509252,0,0,0,45.06
76972,-0.044999166527754625,-0.01886481080180029,-9.808911105184198,-0.01,-6.6677779629938325e-06,-0.019998333055509254,0,0,0,44.93
76983,-0.044999166527754625,-0.028864810801800284,-9.818911105184197,-0.02,-6.6677779629938325e-06,-0.019998333055509254,0,0,0,45.12
76992,-0.044999166527754625,-0.01886481080180029,-9.818911105184197,-0.02,-6.6677779629938325e-06,-0.019998333055509254,0,0,0,45.12
77003,-0.044999166527754625,-0.01886481080180029,-9.808911105184198,-0.01,-6.6677779629938325e-06,-0.019998333055509254,0,0,0,44.87
77013,-0.044999166527754625,-0.00886481080180028,-9.808911105184198,0.0,-6.6677779629938325e-06,-0.029998333055509252,0,0,0,45.0
77022,-0.05499916652775462,-0.00886481080180028,-9.808911105184198,0.0,-6.6677779629938325e-06,-0.029998333055509252,0,0,0,44.87
77033,-0.044999166527754625,-0.01886481080180029,-9.808911105184198,0.0,0.009993332222037006,-0.039998333055509254,0,0,0,44.87
77042,-0.044999166527754625,-0.028864810801800284,-9.818911105184197,-0.02,0.009993332222037006,-0.039998333055509254,0,0,0,45.06
77053,-0.044999166527754625,-0.028864810801800284,-9.818911105184197,-0.04,-6.6677779629938325e-06,-0.039998333055509254,0,0,0,45.06
77063,-0.05499916652775462,-0.01886481080180029,-9.808911105184198,-0.05,0.009993332222037006,-0.049998333055509256,0,0,0,45.0
77072,-0.044999166527754625,-0.01886481080180029,-9.808911105184198,-0.05,0.009993332222037006,-0.05999833305550925,0,0,0,45.12
77083,-0.05499916652775462,-0.00886481080180028,-9.808911105184198,-0.04,0.009993332222037006,-0.05999833305550925,0,0,0,45.12
77092,-0.03499916652775463,-0.00886481080180028,-9.798911105184198,-0.02,0.009993332222037006,-0.049998333055509256,0,0,0,45.12
77103,-0.03499916652775463,0.0011351891981997153,-9.818911105184197,0.0,-6.6677779629938325e-06,-0.039998333055509254,0,0,0,45.06
77113,-0.044999166527754625,0.01113518919819971,-9.818911105184197,0.04,-6.6677779629938325e-06,-0.019998333055509254,0,0,0,45.25
77122,-0.05499916652775462,-0.00886481080180028,-9.818911105184197,0.05,-6.6677779629938325e-06,-0.009998333055509252,0,0,0,44.93
77133,-0.044999166527754625,-0.01886481080180029,-9.818911105184197,0.04,-6.6677779629938325e-06,-0.009998333055509252,0,0,0,45.25
77142,-0.044999166527754625,-0.028864810801800284,-9.808911105184198,0.02,-6.6677779629938325e-06,-0.009998333055509252,0,0,0,45.0
77153,-0.044999166527754625,-0.038864810801800286,-9.808911105184198,-0.05,-6.6677779629938325e-06,-0.019998333055509254,0,0,0,45.0
77163,-0.044999166527754625,-0.00886481080180028,-9.808911105184198,-0.05,-6.6677779629938325e-06,-0.049998333055509256,0,0,0,45.12
77172,-0.044999166527754625,-0.01886481080180029,-9.818911105184197,-0.04,-6.6677779629938325e-06,-0.05999833305550925,0,0,0,45.12
77183,-0.044999166527754625,-0.01886481080180029,-9.818911105184197,-0.07,-0.010006667777962995,-0.07999833305550925,0,0,0,45.0
77192,-0.044999166527754625,-0.00886481080180028,-9.808911105184198,-0.07,-0.010006667777962995,-0.07999833305550925,0,0,0,45.06
77203,-0.03499916652775463,0.02113518919819972,-9.818911105184197,0.0,-0.030006667777962993,-0.049998333055509256,0,0,0,44.93
77213,-0.06499916652775463,-0.01886481080180029,-9.798911105184198,0.06,-0.020006667777962995,-0.019998333055509254,0,0,0,45.0
77222,-0.05499916652775462,-0.028864810801800284,-9.808911105184198,0.03,-0.010006667777962995,-0.019998333055509254,0,0,0,45.12
77233,-0.03499916652775463,-0.028864810801800284,-9.828911105184197,-0.02,-0.020006667777962995,-0.029998333055509252,0,0,0,45.06
77242,-0.024999166527754624,-0.038864810801800286,-9.838911105184197,-0.14,-0.06000666777796299,-0.09999833305550926,0,0,0,45.0
77253,-0.03499916652775463,-0.00886481080180028,-9.838911105184197,-0.25,-0.11000666777796299,-0.20999833305550925,0,0,0,45.12
77263,-0.09499916652775463,0.01113518919819971,-9.808911105184198,-0.24,-0.100006667777963,-0.26999833305550924,0,0,0,45.25
77272,-0.08499916652775462,-0.00886481080180028,-9.798911105184198,-0.15,-0.020006667777962995,-0.18999833305550926,0,0,0,45.12
77283,-0.05499916652775462,0.02113518919819972,-9.788911105184198,-0.19,-0.010006667777962995,-0.11999833305550925,0,0,0,45.0
77292,-0.03499916652775463,0.0011351891981997153,-9.798911105184198,-0.09,-6.6677779629938325e-06,-0.049998333055509256,0,0,0,45.12
77303,-0.03499916652775463,-0.00886481080180028,-9.808911105184198,-0.02,-6.6677779629938325e-06,-0.009998333055509252,0,0,0,45.0
77313,-0.044999166527754625,-0.00886481080180028,-9.808911105184198,0.0,-6.6677779629938325e-06,-0.009998333055509252,0,0,0,45.12
77322,-0.044999166527754625,-0.00886481080180028,-9.808911105184198,0.0,-6.6677779629938325e-06,1.6669444907484581e-06,0,0,0,44.93
77333,-0.044999166527754625,0.0011351891981997153,-9.818911105184197,0.0,-6.6677779629938325e-06,1.6669444907484581e-06,0,0,0,45.25
77342,-0.05499916652775462,0.0011351891981997153,-9.808911105184198,0.0,-6.6677779629938325e-06,1.6669444907484581e-06,0,0,0,45.0
77353,-0.05499916652775462,0.0011351891981997153,-9.808911105184198,0.0,-6.6677779629938325e-06,1.6669444907484581e-06,0,0,0,45.0
77363,-0.05499916652775462,0.01113518919819971,-9.808911105184198,0.0,-6.6677779629938325e-06,1.6669444907484581e-06,0,0,0,45.0
77372,-0.05499916652775462,0.0011351891981997153,-9.818911105184197,0.0,-6.6677779629938325e-06,1.6669444907484581e-06,0,0,0,45.25
77383,-0.05499916652775462,0.0011351891981997153,-9.818911105184197,0.0,-6.6677779629938325e-06,1.6669444907484581e-06,0,0,0,44.93
77392,-0.05499916652775462,-0.00886481080180028,-9.808911105184198,0.0,-6.6677779629938325e-06,1.6669444907484581e-06,0,0,0,45.0
77403,-0.044999166527754625,-0.00886481080180028,-9.808911105184198,0.0,-6.6677779629938325e-06,1.6669444907484581e-06,0,0,0,45.0
77413,-0.044999166527754625,-0.00886481080180028,-9.808911105184198,0.0,-6.6677779629938325e-06,1.6669444907484581e-06,0,0,0,44.87
77422,-0.044999166527754625,0.0011351891981997153,-9.808911105184198,0.0,-6.6677779629938325e-06,1.6669444907484581e-06,0,0,0,45.0
77433,-0.044999166527754625,0.0011351891981997153,-9.818911105184197,0.0,-6.6677779629938325e-06,1.6669444907484581e-06,0,0,0,45.25
77442,-0.044999166527754625,0.0011351891981997153,-9.818911105184197,0.0,-6.6677779629938325e-06,1.6669444907484581e-06,0,0,0,45.31
77453,-0.044999166527754625,0.0011351891981997153,-9.818911105184197,0.0,-6.6677779629938325e-06,1.6669444907484581e-06,0,0,0,45.06
77463,-0.044999166527754625,0.0011351891981997153,-9.818911105184197,0.0,-6.6677779629938325e-06,1.6669444907484581e-06,0,0,0,45.12
77472,-0.05499916652775462,0.0011351891981997153,-9.808911105184198,0.0,-6.6677779629938325e-06,1.6669444907484581e-06,0,0,0,45.12
77483,-0.05499916652775462,0.0011351891981997153,-9.808911105184198,0.0,-6.6677779629938325e-06,1.6669444907484581e-06,0,0,0,44.93
77492,-0.05499916652775462,0.0011351891981997153,-9.808911105184198,0.0,-6.6677779629938325e-06,1.6669444907484581e-06,0,0,0,45.0
77503,-0.05499916652775462,0.0011351891981997153,-9.808911105184198,0.0,-6.6677779629938325e-06,1.6669444907484581e-06,0,0,0,45.0
77513,-0.05499916652775462,0.0011351891981997153,-9.818911105184197,0.0,-6.6677779629938325e-06,1.6669444907484581e-06,0,0,0,45.25
77522,-0.05499916652775462,0.0011351891981997153,-9.808911105184198,0.0,-6.6677779629938325e-06,1.6669444907484581e-06,0,0,0,45.25
77533,-0.044999166527754625,-0.00886481080180028,-9.808911105184198,0.0,-6.6677779629938325e-06,1.6669444907484581e-06,0,0,0,45.12
77542,-0.044999166527754625,-0.00886481080180028,-9.808911105184198,0.0,-6.6677779629938325e-06,1.6669444907484581e-06,0,0,0,45.25
77553,-0.05499916652775462,0.0011351891981997153,-9.818911105184197,0.0,-6.6677779629938325e-06,1.6669444907484581e-06,0,0,0,45.12
77563,-0.05499916652775462,-0.00886481080180028,-9.818911105184197,0.0,-6.6677779629938325e-06,1.6669444907484581e-06,0,0,0,45.06
77572,-0.05499916652775462,-0.00886481080180028,-9.808911105184198,0.0,-6.6677779629938325e-06,1.6669444907484581e-06,0,0,0,45.0
77583,-0.06499916652775463,0.0011351891981997153,-9.808911105184198,0.0,-6.6677779629938325e-06,1.6669444907484581e-06,0,0,0,45.0
77592,-0.044999166527754625,0.0011351891981997153,-9.818911105184197,0.0,-6.6677779629938325e-06,1.6669444907484581e-06,0,0,0,45.12
77603,-0.03499916652775463,0.0011351891981997153,-9.818911105184197,0.0,-6.6677779629938325e-06,1.6669444907484581e-06,0,0,0,45.0
77613,-0.044999166527754625,0.0011351891981997153,-9.808911105184198,0.0,-6.6677779629938325e-06,1.6669444907484581e-06,0,0,0,44.87
77622,-0.05499916652775462,0.01113518919819971,-9.808911105184198,0.0,-6.6677779629938325e-06,1.6669444907484581e-06,0,0,0,45.0
77633,-0.05499916652775462,0.01113518919819971,-9.808911105184198,0.0,-6.6677779629938325e-06,1.6669444907484581e-06,0,0,0,44.81
77642,-0.05499916652775462,0.0011351891981997153,-9.798911105184198,0.0,-6.6677779629938325e-06,1.6669444907484581e-06,0,0,0,45.0
77653,-0.05499916652775462,0.0011351891981997153,-9.808911105184198,0.0,-6.6677779629938325e-06,1.6669444907484581e-06,0,0,0,45.0
77663,-0.05499916652775462,0.0011351891981997153,-9.808911105184198,0.0,-6.6677779629938325e-06,1.6669444907484581e-06,0,0,0,45.0
77672,-0.05499916652775462,0.0011351891981997153,-9.808911105184198,0.0,-6.6677779629938325e-06,1.6669444907484581e-06,0,0,0,44.87
77683,-0.05499916652775462,0.0011351891981997153,-9.808911105184198,0.0,-6.6677779629938325e-06,1.6669444907484581e-06,0,0,0,45.0
77692,-0.05499916652775462,0.0011351891981997153,-9.808911105184198,0.0,-6.6677779629938325e-06,1.6669444907484581e-06,0,0,0,44.93
77703,-0.05499916652775462,0.0011351891981997153,-9.808911105184198,0.0,-6.6677779629938325e-06,1.6669444907484581e-06,0,0,0,45.12
77713,-0.05499916652775462,-0.00886481080180028,-9.808911105184198,0.0,-6.6677779629938325e-06,1.6669444907484581e-06,0,0,0,45.06
77722,-0.05499916652775462,0.0011351891981997153,-9.808911105184198,0.0,-6.6677779629938325e-06,1.6669444907484581e-06,0,0,0,45.25
77733,-0.044999166527754625,0.0011351891981997153,-9.808911105184198,0.0,-6.6677779629938325e-06,1.6669444907484581e-06,0,0,0,44.75
77742,-0.044999166527754625,0.0011351891981997153,-9.808911105184198,0.0,-6.6677779629938325e-06,1.6669444907484581e-06,0,0,0,45.12
77753,-0.044999166527754625,-0.01886481080180029,-9.808911105184198,-0.03,-0.040006667777962995,1.6669444907484581e-06,0,0,0,44.93
77763,-0.044999166527754625,-0.01886481080180029,-9.808911105184198,-0.08,-0.050006667777963,1.6669444907484581e-06,0,0,0,45.0
77772,-0.05499916652775462,-0.00886481080180028,-9.808911105184198,-0.06,-0.030006667777962993,1.6669444907484581e-06,0,0,0,45.12
77783,-0.05499916652775462,0.01113518919819971,-9.808911105184198,-0.02,-0.010006667777962995,1.6669444907484581e-06,0,0,0,45.0
77792,-0.044999166527754625,0.01113518919819971,-9.818911105184197,0.03,0.019993332222037006,1.6669444907484581e-06,0,0,0,45.12
77803,-0.05499916652775462,0.02113518919819972,-9.818911105184197,0.07,0.04999333222203701,1.6669444907484581e-06,0,0,0,45.12
77813,-0.05499916652775462,0.01113518919819971,-9.808911105184198,0.04,0.029993332222037004,1.6669444907484581e-06,0,0,0,45.12
77822,-0.044999166527754625,0.0011351891981997153,-9.808911105184198,0.01,0.009993332222037006,1.6669444907484581e-06,0,0,0,45.25
77833,-0.044999166527754625,-0.00886481080180028,-9.808911105184198,0.0,-6.6677779629938325e-06,1.6669444907484581e-06,0,0,0,45.06
77842,-0.044999166527754625,0.0011351891981997153,-9.808911105184198,0.0,-6.6677779629938325e-06,1.6669444907484581e-06,0,0,0,44.75
77853,-0.044999166527754625,0.0011351891981997153,-9.818911105184197,0.0,-6.6677779629938325e-06,1.6669444907484581e-06,0,0,0,45.0
77863,-0.044999166527754625,0.0011351891981997153,-9.818911105184197,0.0,-6.6677779629938325e-06,1.6669444907484581e-06,0,0,0,45.06
77872,-0.05499916652775462,0.01113518919819971,-9.808911105184198,0.0,-6.6677779629938325e-06,1.6669444907484581e-06,0,0,0,45.0
77883,-0.05499916652775462,0.0011351891981997153,-9.808911105184198,0.0,-6.6677779629938325e-06,1.6669444907484581e-06,0,0,0,45.0
77892,-0.044999166527754625,0.0011351891981997153,-9.808911105184198,0.0,-6.6677779629938325e-06,1.6669444907484581e-06,0,0,0,44.93
77903,-0.03499916652775463,0.0011351891981997153,-9.808911105184198,0.0,-6.6677779629938325e-06,1.6669444907484581e-06,0,0,0,44.75
77913,-0.044999166527754625,0.0011351891981997153,-9.808911105184198,0.0,-6.6677779629938325e-06,1.6669444907484581e-06,0,0,0,45.31
77922,-0.05499916652775462,0.0011351891981997153,-9.818911105184197,0.0,-6.6677779629938325e-06,1.6669444907484581e-06,0,0,0,45.12
77933,-0.05499916652775462,0.0011351891981997153,-9.828911105184197,0.0,-6.6677779629938325e-06,1.6669444907484581e-06,0,0,0,45.12
77942,-0.05499916652775462,0.0011351891981997153,-9.818911105184197,0.0,-6.6677779629938325e-06,1.6669444907484581e-06,0,0,0,44.93
77953,-0.05499916652775462,-0.00886481080180028,-9.818911105184197,0.0,-6.6677779629938325e-06,1.6669444907484581e-06,0,0,0,45.0
77963,-0.05499916652775462,0.0011351891981997153,-9.818911105184197,0.0,-6.6677779629938325e-06,1.6669444907484581e-06,0,0,0,45.12
77972,-0.05499916652775462,-0.00886481080180028,-9.808911105184198,0.0,-6.6677779629938325e-06,1.6669444907484581e-06,0,0,0,44.93
77983,-0.044999166527754625,-0.00886481080180028,-9.808911105184198,0.0,-6.6677779629938325e-06,1.6669444907484581e-06,0,0,0,45.06
77992,-0.044999166527754625,0.0011351891981997153,-9.798911105184198,0.0,-6.6677779629938325e-06,1.6669444907484581e-06,0,0,0,45.12
78003,-0.044999166527754625,-0.00886481080180028,-9.808911105184198,0.0,-6.6677779629938325e-06,1.6669444907484581e-06,0,0,0,45.0
78013,-0.044999166527754625,-0.00886481080180028,-9.808911105184198,0.0,-6.6677779629938325e-06,1.6669444907484581e-06,0,0,0,45.0
78022,-0.05499916652775462,0.0011351891981997153,-9.818911105184197,0.0,-6.6677779629938325e-06,1.6669444907484581e-06,0,0,0,44.75
78033,-0.06499916652775463,0.01113518919819971,-9.818911105184197,0.0,-6.6677779629938325e-06,1.6669444907484581e-06,0,0,0,45.12
78042,-0.05499916652775462,0.01113518919819971,-9.808911105184198,0.0,-6.6677779629938325e-06,1.6669444907484581e-06,0,0,0,45.25
78053,-0.044999166527754625,0.01113518919819971,-9.808911105184198,0.0,-6.6677779629938325e-06,1.6669444907484581e-06,0,0,0,45.12
78063,-0.044999166527754625,0.0011351891981997153,-9.818911105184197,0.0,-6.6677779629938325e-06,1.6669444907484581e-06,0,0,0,45.12
78072,-0.044999166527754625,0.0011351891981997153,-9.808911105184198,0.0,-6.6677779629938325e-06,1.6669444907484581e-06,0,0,0,45.12
78083,-0.044999166527754625,-0.00886481080180028,-9.808911105184198,0.0,-6.6677779629938325e-06,1.6669444907484581e-06,0,0,0,45.0
78092,-0.05499916652775462,-0.00886481080180028,-9.818911105184197,0.0,-6.6677779629938325e-06,1.6669444907484581e-06,0,0,0,45.12
78103,-0.05499916652775462,-0.00886481080180028,-9.818911105184197,0.0,-6.6677779629938325e-06,1.6669444907484581e-06,0,0,0,45.0
78113,-0.05499916652775462,0.0011351891981997153,-9.808911105184198,0.0,-6.6677779629938325e-06,1.6669444907484581e-06,0,0,0,45.06
78122,-0.05499916652775462,0.0011351891981997153,-9.818911105184197,0.0,-6.6677779629938325e-06,1.6669444907484581e-06,0,0,0,45.25
78133,-0.05499916652775462,0.01113518919819971,-9.808911105184198,0.0,-6.6677779629938325e-06,1.6669444907484581e-06,0,0,0,45.25
78142,-0.044999166527754625,0.0011351891981997153,-9.808911105184198,0.0,-6.6677779629938325e-06,1.6669444907484581e-06,0,0,0,44.93
78153,-0.05499916652775462,0.0011351891981997153,-9.818911105184197,0.0,-6.6677779629938325e-06,1.6669444907484581e-06,0,0,0,45.06
78163,-0.05499916652775462,0.0011351891981997153,-9.818911105184197,0.0,-6.6677779629938325e-06,1.6669444907484581e-06,0,0,0,45.0
78172,-0.044999166527754625,0.0011351891981997153,-9.808911105184198,0.0,-6.6677779629938325e-06,1.6669444907484581e-06,0,0,0,45.12
78183,-0.044999166527754625,0.01113518919819971,-9.808911105184198,0.0,-6.6677779629938325e-06,1.6669444907484581e-06,0,0,0,45.06
78192,-0.044999166527754625,0.0011351891981997153,-9.808911105184198,0.0,-6.6677779629938325e-06,1.6669444907484581e-06,0,0,0,45.06
78203,-0.044999166527754625,0.01113518919819971,-9.788911105184198,0.01,-6.6677779629938325e-06,1.6669444907484581e-06,0,0,0,45.0
78213,-0.07499916652775462,0.02113518919819972,-9.788911105184198,0.12,0.06999333222203702,-0.049998333055509256,0,0,0,45.12
78222,-0.06499916652775463,-0.01886481080180029,-9.838911105184197,0.13,0.10999333222203701,-0.039998333055509254,0,0,0,45.12
78233,-0.03499916652775463,-0.06886481080180029,-9.848911105184197,0.04,0.06999333222203702,-0.019998333055509254,0,0,0,45.06
78242,-0.03499916652775463,-0.01886481080180029,-9.818911105184197,-0.08,-0.010006667777962995,1.6669444907484581e-06,0,0,0,45.12
78253,-0.08499916652775462,0.07113518919819971,-9.788911105184198,0.0,0.019993332222037006,0.010001666944490749,0,0,0,45.31
78263,-0.03499916652775463,-0.00886481080180028,-9.768911105184197,0.13,0.009993332222037006,0.010001666944490749,0,0,0,45.12
78272,-0.024999166527754624,-0.028864810801800284,-9.788911105184198,0.06,-0.08000666777796299,1.6669444907484581e-06,0,0,0,45.06
78283,-0.03499916652775463,0.0011351891981997153,-9.798911105184198,0.02,-0.11000666777796299,-0.009998333055509252,0,0,0,45.06
78292,-0.044999166527754625,-0.00886481080180028,-9.818911105184197,0.01,-0.070006667777963,-0.009998333055509252,0,0,0,45.0
78303,-0.06499916652775463,-0.00886481080180028,-9.818911105184197,-0.01,-0.010006667777962995,1.6669444907484581e-06,0,0,0,45.0
78313,-0.07499916652775462,0.01113518919819971,-9.828911105184197,-0.01,0.039993332222037006,0.010001666944490749,0,0,0,45.06
78322,-0.07499916652775462,0.01113518919819971,-9.828911105184197,0.02,0.059993332222037,1.6669444907484581e-06,0,0,0,45.12
78333,-0.05499916652775462,0.01113518919819971,-9.818911105184197,0.07,0.059993332222037,1.6669444907484581e-06,0,0,0,45.12
78342,-0.03499916652775463,-0.00886481080180028,-9.808911105184198,0.09,0.04999333222203701,1.6669444907484581e-06,0,0,0,45.0
78353,-0.03499916652775463,-0.01886481080180029,-9.808911105184198,0.08,0.029993332222037004,1.6669444907484581e-06,0,0,0,44.87
78363,-0.03499916652775463,-0.01886481080180029,-9.798911105184198,0.05,-6.6677779629938325e-06,1.6669444907484581e-06,0,0,0,45.25
78372,-0.03499916652775463,-0.01886481080180029,-9.808911105184198,0.0,-0.020006667777962995,1.6669444907484581e-06,0,0,0,45.12
78383,-0.044999166527754625,-0.00886481080180028,-9.798911105184198,-0.03,-0.040006667777962995,1.6669444907484581e-06,0,0,0,44.93
78392,-0.05499916652775462,-0.00886481080180028,-9.808911105184198,-0.02,-0.030006667777962993,1.6669444907484581e-06,0,0,0,44.93
78403,-0.05499916652775462,-0.00886481080180028,-9.798911105184198,-0.02,-0.020006667777962995,1.6669444907484581e-06,0,0,0,45.0
78413,-0.05499916652775462,-0.00886481080180028,-9.808911105184198,0.0,-0.020006667777962995,-0.009998333055509252,0,0,0,45.0
78422,-0.05499916652775462,-0.00886481080180028,-9.808911105184198,0.0,-0.020006667777962995,-0.009998333055509252,0,0,0,45.06
78433,-0.05499916652775462,0.01113518919819971,-9.808911105184198,0.02,-6.6677779629938325e-06,-0.009998333055509252,0,0,0,45.0
78442,-0.044999166527754625,-0.00886481080180028,-9.818911105184197,0.05,-6.6677779629938325e-06,-0.019998333055509254,0,0,0,44.93
78453,-0.044999166527754625,-0.00886481080180028,-9.808911105184198,0.06,0.019993332222037006,-0.009998333055509252,0,0,0,45.12
78463,-0.044999166527754625,0.0011351891981997153,-9.808911105184198,0.07,0.029993332222037004,1.6669444907484581e-06,0,0,0,44.93
78472,-0.044999166527754625,-0.00886481080180028,-9.808911105184198,0.07,0.029993332222037004,-0.009998333055509252,0,0,0,45.0
78483,-0.044999166527754625,-0.00886481080180028,-9.808911105184198,0.08,0.04999333222203701,-0.009998333055509252,0,0,0,45.06
78492,-0.044999166527754625,-0.01886481080180029,-9.808911105184198,0.07,0.04999333222203701,1.6669444907484581e-06,0,0,0,44.87
78503,-0.03499916652775463,-0.01886481080180029,-9.808911105184198,0.03,0.029993332222037004,1.6669444907484581e-06,0,0,0,44.93
78513,-0.044999166527754625,-0.00886481080180028,-9.808911105184198,0.02,0.009993332222037006,1.6669444907484581e-06,0,0,0,45.0
78522,-0.05499916652775462,-0.00886481080180028,-9.808911105184198,0.03,0.009993332222037006,1.6669444907484581e-06,0,0,0,45.12
78533,-0.05499916652775462,-0.01886481080180029,-9.818911105184197,0.04,0.019993332222037006,1.6669444907484581e-06,0,0,0,45.12
78542,-0.044999166527754625,-0.028864810801800284,-9.828911105184197,0.04,0.009993332222037006,1.6669444907484581e-06,0,0,0,45.06
78553,-0.044999166527754625,-0.01886481080180029,-9.828911105184197,0.04,0.009993332222037006,1.6669444907484581e-06,0,0,0,44.93
78563,-0.03499916652775463,-0.01886481080180029,-9.818911105184197,0.03,-6.6677779629938325e-06,1.6669444907484581e-06,0,0,0,45.12
78572,-0.03499916652775463,-0.028864810801800284,-9.818911105184197,0.01,-0.010006667777962995,1.6669444907484581e-06,0,0,0,45.25
78583,-0.03499916652775463,-0.028864810801800284,-9.808911105184198,-0.01,-0.020006667777962995,1.6669444907484581e-06,0,0,0,45.12
78592,-0.03499916652775463,-0.028864810801800284,-9.808911105184198,-0.04,-0.040006667777962995,0.010001666944490749,0,0,0,45.0
78603,-0.044999166527754625,-0.01886481080180029,-9.808911105184198,-0.06,-0.050006667777963,0.010001666944490749,0,0,0,44.93
78613,-0.05499916652775462,-0.00886481080180028,-9.818911105184197,-0.06,-0.050006667777963,0.010001666944490749,0,0,0,45.0
78622,-0.06499916652775463,0.0011351891981997153,-9.808911105184198,-0.04,-0.030006667777962993,0.010001666944490749,0,0,0,44.87
78633,-0.06499916652775463,0.0011351891981997153,-9.808911105184198,-0.01,-6.6677779629938325e-06,0.010001666944490749,0,0,0,45.12
78642,-0.044999166527754625,-0.00886481080180028,-9.808911105184198,0.01,-6.6677779629938325e-06,0.020001666944490747,0,0,0,45.0
78653,-0.044999166527754625,-0.00886481080180028,-9.808911105184198,0.01,-6.6677779629938325e-06,0.010001666944490749,0,0,0,45.06
78663,-0.044999166527754625,-0.00886481080180028,-9.808911105184198,0.01,-0.010006667777962995,0.010001666944490749,0,0,0,45.0
78672,-0.044999166527754625,-0.01886481080180029,-9.808911105184198,0.0,-0.010006667777962995,0.020001666944490747,0,0,0,45.0
78683,-0.044999166527754625,-0.01886481080180029,-9.818911105184197,0.0,-0.010006667777962995,0.020001666944490747,0,0,0,45.12
78692,-0.044999166527754625,-0.01886481080180029,-9.808911105184198,-0.02,-0.030006667777962993,0.030001666944490746,0,0,0,45.0
78703,-0.044999166527754625,-0.01886481080180029,-9.798911105184198,-0.03,-0.040006667777962995,0.04000166694449075,0,0,0,45.12
78713,-0.044999166527754625,-0.01886481080180029,-9.808911105184198,-0.04,-0.040006667777962995,0.030001666944490746,0,0,0,45.0
78722,-0.05499916652775462,-0.01886481080180029,-9.818911105184197,-0.06,-0.050006667777963,0.04000166694449075,0,0,0,45.12
78733,-0.05499916652775462,0.0011351891981997153,-9.818911105184197,-0.06,-0.050006667777963,0.030001666944490746,0,0,0,45.0
78742,-0.044999166527754625,0.0011351891981997153,-9.818911105184197,-0.04,-0.040006667777962995,0.030001666944490746,0,0,0,45.12
78753,-0.044999166527754625,-0.00886481080180028,-9.818911105184197,-0.02,-0.030006667777962993,0.020001666944490747,0,0,0,45.12
78763,-0.044999166527754625,-0.01886481080180029,-9.818911105184197,-0.03,-0.020006667777962995,0.05000166694449075,0,0,0,44.93
78772,-0.044999166527754625,-0.028864810801800284,-9.798911105184198,-0.03,-0.020006667777962995,0.11000166694449075,0,0,0,44.93
78783,-0.06499916652775463,-0.01886481080180029,-9.808911105184198,-0.03,-0.010006667777962995,0.17000166694449076,0,0,0,45.0
78792,-0.07499916652775462,0.02113518919819972,-9.808911105184198,-0.02,-6.6677779629938325e-06,0.14000166694449076,0,0,0,45.25
78803,-0.06499916652775463,0.01113518919819971,-9.808911105184198,-0.03,0.009993332222037006,0.05000166694449075,0,0,0,45.12
78813,-0.06499916652775463,0.0011351891981997153,-9.808911105184198,-0.02,0.029993332222037004,0.010001666944490749,0,0,0,45.0
78822,-0.05499916652775462,0.0011351891981997153,-9.798911105184198,0.0,0.04999333222203701,0.010001666944490749,0,0,0,44.93
78833,-0.05499916652775462,0.0011351891981997153,-9.798911105184198,0.02,0.039993332222037006,0.020001666944490747,0,0,0,45.06
78842,-0.06499916652775463,-0.00886481080180028,-9.808911105184198,0.03,0.039993332222037006,0.05000166694449075,0,0,0,45.25
78853,-0.004999166527754626,-0.4888648108018003,-9.808911105184198,0.13,0.059993332222037,1.1600016669444906,0,0,0,45.0
78863,0.08500083347224538,-0.9188648108018003,-9.828911105184197,0.14,0.009993332222037006,8.61000166694449,0,0,0,45.0
78872,-0.004999166527754626,-0.3488648108018003,-9.818911105184197,0.11,-0.040006667777962995,14.61000166694449,0,0,0,45.25
78883,-0.05499916652775462,0.2911351891981997,-9.808911105184198,0.08,-0.070006667777963,15.16000166694449,0,0,0,45.0
78892,-0.07499916652775462,0.4311351891981997,-9.798911105184198,0.04,-0.070006667777963,11.31000166694449,0,0,0,45.0
78903,-0.07499916652775462,0.12113518919819972,-9.808911105184198,0.02,-0.070006667777963,8.03000166694449,0,0,0,45.0
78913,-0.014999166527754626,-0.16886481080180027,-9.828911105184197,0.03,-0.070006667777963,7.570001666944491,0,0,0,45.0
78922,0.005000833472245374,-0.22886481080180027,-9.818911105184197,0.05,-0.070006667777963,9.15000166694449,0,0,0,45.0
78933,0.025000833472245375,-0.1988648108018003,-9.808911105184198,0.06,-0.08000666777796299,11.24000166694449,0,0,0,44.87
78942,0.025000833472245375,-0.09886481080180029,-9.808911105184198,0.07,-0.09000666777796298,13.22000166694449,0,0,0,45.06
78953,-0.07499916652775462,0.13113518919819972,-9.798911105184198,0.07,-0.09000666777796298,13.42000166694449,0,0,0,45.31
78963,-0.06499916652775463,0.1611351891981997,-9.808911105184198,0.07,-0.08000666777796299,12.58000166694449,0,0,0,45.12
78972,-0.06499916652775463,0.04113518919819971,-9.808911105184198,0.06,-0.08000666777796299,12.14000166694449,0,0,0,45.12
78983,-0.10499916652775462,0.07113518919819971,-9.808911105184198,0.06,-0.070006667777963,12.09000166694449,0,0,0,45.12
78992,-0.06499916652775463,0.04113518919819971,-9.808911105184198,0.06,-0.070006667777963,11.95000166694449,0,0,0,45.06
79003,-0.024999166527754624,-0.06886481080180029,-9.808911105184198,0.04,-0.08000666777796299,12.11000166694449,0,0,0,45.0
79013,0.015000833472245375,-0.07886481080180029,-9.818911105184197,0.04,-0.09000666777796298,12.95000166694449,0,0,0,44.93
79022,0.04500083347224537,-0.10886481080180029,-9.808911105184198,0.06,-0.09000666777796298,14.27000166694449,0,0,0,45.12
79033,0.06500083347224538,-0.09886481080180029,-9.808911105184198,0.08,-0.100006667777963,16.390001666944492,0,0,0,45.06
79042,0.04500083347224537,0.0011351891981997153,-9.818911105184197,0.09,-0.11000666777796299,18.370001666944493,0,0,0,45.25
79053,-0.044999166527754625,0.13113518919819972,-9.818911105184197,0.11,-0.12000666777796298,19.960001666944493,0,0,0,45.0
79063,-0.19499916652775465,0.4311351891981997,-9.798911105184198,0.15,-0.12000666777796298,20.410001666944492,0,0,0,44.93
79072,-0.21499916652775464,0.5311351891981997,-9.798911105184198,0.16,-0.11000666777796299,18.79000166694449,0,0,0,44.93
79083,-0.16499916652775465,0.3411351891981997,-9.798911105184198,0.14,-0.11000666777796299,16.510001666944493,0,0,0,45.0
79092,-0.15499916652775464,0.12113518919819972,-9.808911105184198,0.12,-0.11000666777796299,15.33000166694449,0,0,0,45.0
79103,-0.13499916652775465,0.02113518919819972,-9.808911105184198,0.11,-0.130006667777963,15.78000166694449,0,0,0,45.25
79113,-0.12499916652775463,-0.06886481080180029,-9.798911105184198,0.1,-0.160006667777963,17.56000166694449,0,0,0,45.0
79122,-0.05499916652775462,-0.1288648108018003,-9.808911105184198,0.12,-0.190006667777963,20.640001666944492,0,0,0,45.12
79133,0.025000833472245375,-0.1588648108018003,-9.808911105184198,0.14,-0.21000666777796298,23.660001666944492,0,0,0,45.12
79142,0.025000833472245375,-0.1588648108018003,-9.818911105184197,0.16,-0.220006667777963,26.13000166694449,0,0,0,45.12
79153,-0.004999166527754626,-0.1488648108018003,-9.818911105184197,0.16,-0.230006667777963,27.660001666944492,0,0,0,45.0
79163,-0.05499916652775462,-0.1988648108018003,-9.818911105184197,0.15,-0.24000666777796298,29.030001666944493,0,0,0,45.12
79172,-0.06499916652775463,-0.10886481080180029,-9.808911105184198,0.14,-0.220006667777963,29.710001666944493,0,0,0,45.31
79183,-0.06499916652775463,0.09113518919819973,-9.808911105184198,0.14,-0.190006667777963,28.11000166694449,0,0,0,45.12
79192,0.015000833472245375,0.2411351891981997,-9.808911105184198,0.14,-0.170006667777963,24.68000166694449,0,0,0,45.12
79203,0.07500083347224538,0.2211351891981997,-9.808911105184198,0.14,-0.160006667777963,21.75000166694449,0,0,0,45.0
79213,0.05500083347224538,0.1611351891981997,-9.818911105184197,0.12,-0.140006667777963,20.86000166694449,0,0,0,44.93
79222,0.04500083347224537,0.15113518919819974,-9.818911105184197,0.11,-0.140006667777963,21.65000166694449,0,0,0,45.12
79233,0.03500083347224538,0.09113518919819973,-9.818911105184197,0.09,-0.140006667777963,23.04000166694449,0,0,0,45.12
79242,-0.044999166527754625,-0.04886481080180029,-9.808911105184198,0.08,-0.15000666777796298,23.95000166694449,0,0,0,45.0
79253,-0.14499916652775463,-0.1588648108018003,-9.808911105184198,0.09,-0.18000666777796298,23.56000166694449,0,0,0,45.12
79263,-0.24499916652775464,-0.1888648108018003,-9.808911105184198,0.09,-0.170006667777963,22.65000166694449,0,0,0,45.06
79272,-0.2649991665277546,-0.1488648108018003,-9.808911105184198,0.06,-0.15000666777796298,21.49000166694449,0,0,0,45.0
79283,-0.17499916652775463,-0.06886481080180029,-9.818911105184197,0.06,-0.130006667777963,20.04000166694449,0,0,0,45.12
79292,-0.09499916652775463,-0.00886481080180028,-9.818911105184197,0.07,-0.130006667777963,18.72000166694449,0,0,0,44.93
79303,-0.06499916652775463,-0.05886481080180028,-9.808911105184198,0.08,-0.140006667777963,18.00000166694449,0,0,0,45.25
79313,-0.024999166527754624,-0.08886481080180028,-9.808911105184198,0.09,-0.15000666777796298,17.95000166694449,0,0,0,44.93
79322,0.03500083347224538,-0.10886481080180029,-9.808911105184198,0.09,-0.160006667777963,18.230001666944492,0,0,0,45.0
79333,0.07500083347224538,-0.09886481080180029,-9.818911105184197,0.11,-0.160006667777963,19.00000166694449,0,0,0,45.0
79342,0.07500083347224538,-0.10886481080180029,-9.828911105184197,0.11,-0.160006667777963,20.010001666944493,0,0,0,45.0
79353,-0.004999166527754626,-0.07886481080180029,-9.818911105184197,0.08,-0.15000666777796298,20.600001666944493,0,0,0,45.12
79363,-0.17499916652775463,0.08113518919819972,-9.808911105184198,0.08,-0.130006667777963,19.510001666944493,0,0,0,45.06
79372,-0.18499916652775464,0.13113518919819972,-9.798911105184198,0.09,-0.11000666777796299,17.22000166694449,0,0,0,44.93
79383,-0.15499916652775464,0.10113518919819971,-9.808911105184198,0.1,-0.12000666777796298,14.96000166694449,0,0,0,45.0
79392,-0.11499916652775462,0.05113518919819972,-9.808911105184198,0.12,-0.130006667777963,13.83000166694449,0,0,0,45.0
79403,-0.06499916652775463,0.02113518919819972,-9.818911105184197,0.14,-0.160006667777963,13.42000166694449,0,0,0,45.25
79413,-0.03499916652775463,0.0011351891981997153,-9.808911105184198,0.15,-0.170006667777963,13.59000166694449,0,0,0,45.0
79422,0.005000833472245374,-0.038864810801800286,-9.808911105184198,0.18,-0.190006667777963,14.53000166694449,0,0,0,45.12
79433,-0.03499916652775463,-0.1588648108018003,-9.808911105184198,0.18,-0.21000666777796298,16.20000166694449,0,0,0,45.12
79442,-0.11499916652775462,-0.28886481080180026,-9.808911105184198,0.17,-0.220006667777963,18.600001666944493,0,0,0,45.06
79453,-0.16499916652775465,-0.2188648108018003,-9.808911105184198,0.15,-0.200006667777963,20.530001666944493,0,0,0,45.0
79463,-0.18499916652775464,-0.09886481080180029,-9.818911105184197,0.13,-0.18000666777796298,20.890001666944492,0,0,0,45.12
79472,-0.20499916652775463,-0.1588648108018003,-9.818911105184197,0.11,-0.160006667777963,20.640001666944492,0,0,0,45.0
79483,-0.16499916652775465,-0.2188648108018003,-9.818911105184197,0.1,-0.160006667777963,21.06000166694449,0,0,0,45.0
79492,-0.004999166527754626,-0.04886481080180029,-9.808911105184198,0.11,-0.160006667777963,21.070001666944492,0,0,0,44.87
79503,0.04500083347224537,0.19113518919819972,-9.798911105184198,0.12,-0.170006667777963,19.50000166694449,0,0,0,45.12
79513,0.025000833472245375,0.21113518919819968,-9.798911105184198,0.12,-0.160006667777963,17.280001666944493,0,0,0,45.25
79522,-0.024999166527754624,0.11113518919819972,-9.798911105184198,0.12,-0.140006667777963,15.92000166694449,0,0,0,45.0
79533,-0.044999166527754625,0.19113518919819972,-9.798911105184198,0.12,-0.100006667777963,15.27000166694449,0,0,0,45.0
79542,-0.03499916652775463,0.2811351891981997,-9.808911105184198,0.13,-0.070006667777963,14.10000166694449,0,0,0,45.06
79553,-0.05499916652775462,0.1811351891981997,-9.808911105184198,0.11,-0.070006667777963,12.98000166694449,0,0,0,45.12
79563,-0.17499916652775463,0.05113518919819972,-9.818911105184197,0.11,-0.08000666777796299,12.82000166694449,0,0,0,45.12
79572,-0.2849991665277546,-0.06886481080180029,-9.818911105184197,0.1,-0.100006667777963,13.44000166694449,0,0,0,45.25
79583,-0.3449991665277546,-0.1888648108018003,-9.828911105184197,0.09,-0.12000666777796298,14.88000166694449,0,0,0,45.25
79592,-0.3249991665277546,-0.2188648108018003,-9.818911105184197,0.09,-0.130006667777963,16.54000166694449,0,0,0,45.06
79603,-0.17499916652775463,-0.07886481080180029,-9.808911105184198,0.11,-0.130006667777963,17.49000166694449,0,0,0,45.0
79613,0.07500083347224538,0.12113518919819972,-9.818911105184197,0.12,-0.11000666777796299,17.02000166694449,0,0,0,45.25
79622,0.23500083347224537,0.2511351891981997,-9.818911105184197,0.13,-0.08000666777796299,15.69000166694449,0,0,0,45.0
79633,0.21500083347224536,0.3211351891981997,-9.808911105184198,0.14,-0.040006667777962995,14.20000166694449,0,0,0,45.0
79642,0.05500083347224538,0.2411351891981997,-9.798911105184198,0.14,-0.030006667777962993,13.50000166694449,0,0,0,45.12
79653,-0.05499916652775462,0.13113518919819972,-9.808911105184198,0.11,-0.010006667777962995,13.98000166694449,0,0,0,44.87
79663,-0.06499916652775463,0.13113518919819972,-9.808911105184198,0.09,-0.010006667777962995,14.04000166694449,0,0,0,45.0
79672,0.015000833472245375,0.1611351891981997,-9.808911105184198,0.07,-6.6677779629938325e-06,12.60000166694449,0,0,0,45.12
79683,0.05500083347224538,0.14113518919819973,-9.808911105184198,0.06,-0.010006667777962995,10.45000166694449,0,0,0,45.12
79692,-0.024999166527754624,0.11113518919819972,-9.798911105184198,0.06,-0.010006667777962995,9.47000166694449,0,0,0,44.93
79703,0.005000833472245374,0.14113518919819973,-9.818911105184197,0.05,0.019993332222037006,10.22000166694449,0,0,0,45.12
79713,0.08500083347224538,0.1811351891981997,-9.818911105184197,0.04,0.019993332222037006,11.89000166694449,0,0,0,45.12
79722,-0.014999166527754626,0.1711351891981997,-9.808911105184198,0.03,-6.6677779629938325e-06,13.30000166694449,0,0,0,45.12
79733,-0.17499916652775463,0.031135189198199714,-9.808911105184198,0.02,-0.020006667777962995,13.33000166694449,0,0,0,45.0
79742,-0.2949991665277546,-0.05886481080180028,-9.808911105184198,0.0,-0.040006667777962995,12.24000166694449,0,0,0,45.12
79753,-0.4049991665277546,-0.07886481080180029,-9.808911105184198,0.0,-0.070006667777963,11.70000166694449,0,0,0,45.0
79763,-0.3849991665277546,-0.06886481080180029,-9.808911105184198,-0.01,-0.06000666777796299,12.72000166694449,0,0,0,45.0
79772,-0.23499916652775463,-0.038864810801800286,-9.808911105184198,0.0,-0.06000666777796299,13.99000166694449,0,0,0,44.93
79783,-0.05499916652775462,0.01113518919819971,-9.808911105184198,0.01,-0.050006667777963,14.45000166694449,0,0,0,45.12
79792,0.10500083347224538,0.02113518919819972,-9.808911105184198,0.03,-0.050006667777963,13.52000166694449,0,0,0,45.25
79803,0.17500083347224538,0.031135189198199714,-9.818911105184197,0.04,-0.050006667777963,11.75000166694449,0,0,0,44.93
79813,0.19500083347224537,0.01113518919819971,-9.808911105184198,0.04,-0.050006667777963,9.47000166694449,0,0,0,45.0
79822,0.005000833472245374,0.01113518919819971,-9.818911105184197,0.04,-0.040006667777962995,7.630001666944491,0,0,0,45.0
79833,-0.22499916652775465,0.04113518919819971,-9.818911105184197,0.02,-0.040006667777962995,7.920001666944491,0,0,0,44.93
79842,-0.2849991665277546,0.04113518919819971,-9.818911105184197,0.02,-0.040006667777962995,9.51000166694449,0,0,0,44.87
79853,-0.13499916652775465,0.0011351891981997153,-9.808911105184198,0.03,-0.070006667777963,10.67000166694449,0,0,0,45.06
79863,0.025000833472245375,-0.00886481080180028,-9.808911105184198,0.04,-0.09000666777796298,10.27000166694449,0,0,0,45.12
79872,0.07500083347224538,0.01113518919819971,-9.808911105184198,0.05,-0.09000666777796298,9.04000166694449,0,0,0,45.12
79883,0.04500083347224537,0.02113518919819972,-9.818911105184197,0.03,-0.06000666777796299,8.07000166694449,0,0,0,45.12
79892,0.12500083347224536,0.01113518919819971,-9.808911105184198,0.03,-0.06000666777796299,7.200001666944491,0,0,0,45.25
79903,0.24500083347224536,-0.028864810801800284,-9.818911105184197,0.02,-0.070006667777963,5.730001666944491,0,0,0,45.0
79913,0.29500083347224537,-0.038864810801800286,-9.818911105184197,0.0,-0.09000666777796298,2.8000016669444907,0,0,0,44.87
79922,0.05500083347224538,0.0011351891981997153,-9.828911105184197,0.0,-0.09000666777796298,0.5000016669444908,0,0,0,45.12
79933,-0.05499916652775462,0.02113518919819972,-9.808911105184198,-0.01,-0.09000666777796298,-0.17999833305550925,0,0,0,45.25
79942,-0.08499916652775462,0.031135189198199714,-9.808911105184198,-0.02,-0.08000666777796299,-0.14999833305550925,0,0,0,45.0
79953,-0.06499916652775463,0.01113518919819971,-9.808911105184198,-0.03,-0.070006667777963,1.6669444907484581e-06,0,0,0,44.93
79963,-0.2949991665277546,-0.06886481080180029,-9.818911105184197,-0.02,-0.08000666777796299,1.5000016669444907,0,0,0,45.25
79972,-0.3449991665277546,-0.11886481080180028,-9.808911105184198,0.02,-0.070006667777963,8.34000166694449,0,0,0,45.12
79983,-0.12499916652775463,-0.01886481080180029,-9.808911105184198,0.02,-0.09000666777796298,11.68000166694449,0,0,0,45.12
79992,0.06500083347224538,0.10113518919819971,-9.808911105184198,0.0,-0.09000666777796298,9.03000166694449,0,0,0,45.12
80003,0.025000833472245375,0.08113518919819972,-9.818911105184197,0.0,-0.070006667777963,5.320001666944491,0,0,0,45.12
80013,-0.20499916652775463,0.0011351891981997153,-9.818911105184197,0.01,-0.010006667777962995,4.250001666944491,0,0,0,45.31
80022,-0.33499916652775463,-0.038864810801800286,-9.818911105184197,0.02,0.019993332222037006,5.860001666944491,0,0,0,44.87
80033,-0.17499916652775463,0.01113518919819971,-9.808911105184198,0.02,0.029993332222037004,7.960001666944491,0,0,0,44.81
80042,0.12500083347224536,0.09113518919819973,-9.808911105184198,0.04,0.019993332222037006,7.730001666944491,0,0,0,45.25
80053,0.3350008334722454,0.12113518919819972,-9.818911105184197,0.02,-6.6677779629938325e-06,5.190001666944491,0,0,0,45.12
80063,0.21500083347224536,0.10113518919819971,-9.818911105184197,0.01,-0.030006667777962993,1.6900016669444906,0,0,0,45.25
80072,0.005000833472245374,0.06113518919819973,-9.808911105184198,0.02,-0.030006667777962993,0.030001666944490746,0,0,0,45.12
80083,-0.07499916652775462,0.02113518919819972,-9.818911105184197,0.03,-0.020006667777962995,-0.26999833305550924,0,0,0,45.06
80092,-0.07499916652775462,0.02113518919819972,-9.808911105184198,0.01,-0.010006667777962995,-0.13999833305550927,0,0,0,45.12
80103,-0.05499916652775462,0.02113518919819972,-9.808911105184198,0.01,-0.020006667777962995,-0.019998333055509254,0,0,0,44.81
80113,-0.05499916652775462,0.02113518919819972,-9.808911105184198,0.01,-0.020006667777962995,0.010001666944490749,0,0,0,45.25
80122,-0.05499916652775462,0.04113518919819971,-9.808911105184198,0.0,-0.010006667777962995,0.010001666944490749,0,0,0,45.0
80133,-0.05499916652775462,0.04113518919819971,-9.808911105184198,0.01,-6.6677779629938325e-06,1.6669444907484581e-06,0,0,0,44.87
80142,-0.06499916652775463,0.031135189198199714,-9.808911105184198,0.01,-6.6677779629938325e-06,1.6669444907484581e-06,0,0,0,45.0
80153,-0.06499916652775463,0.04113518919819971,-9.798911105184198,0.02,-6.6677779629938325e-06,1.6669444907484581e-06,0,0,0,45.12
80163,-0.06499916652775463,0.04113518919819971,-9.808911105184198,0.03,0.009993332222037006,1.6669444907484581e-06,0,0,0,45.25
80172,-0.06499916652775463,0.031135189198199714,-9.818911105184197,0.03,0.009993332222037006,0.010001666944490749,0,0,0,45.0
80183,-0.05499916652775462,0.02113518919819972,-9.818911105184197,0.02,-6.6677779629938325e-06,0.010001666944490749,0,0,0,44.81
80192,-0.05499916652775462,0.02113518919819972,-9.818911105184197,0.01,-6.6677779629938325e-06,1.6669444907484581e-06,0,0,0,45.06
80203,-0.044999166527754625,0.031135189198199714,-9.808911105184198,0.0,-0.020006667777962995,1.6669444907484581e-06,0,0,0,44.93
80213,-0.05499916652775462,0.04113518919819971,-9.808911105184198,0.0,-0.030006667777962993,1.6669444907484581e-06,0,0,0,45.12
80222,-0.05499916652775462,0.04113518919819971,-9.808911105184198,0.01,-0.020006667777962995,-0.009998333055509252,0,0,0,45.0
80233,-0.05499916652775462,0.031135189198199714,-9.818911105184197,0.02,-0.020006667777962995,-0.009998333055509252,0,0,0,45.25
80242,-0.05499916652775462,0.02113518919819972,-9.818911105184197,0.03,-0.010006667777962995,-0.009998333055509252,0,0,0,45.12
80253,-0.05499916652775462,0.02113518919819972,-9.818911105184197,0.02,-0.010006667777962995,-0.009998333055509252,0,0,0,45.12
80263,-0.05499916652775462,0.02113518919819972,-9.818911105184197,0.02,-0.010006667777962995,-0.009998333055509252,0,0,0,45.0
80272,-0.044999166527754625,0.02113518919819972,-9.818911105184197,0.01,-0.020006667777962995,-0.009998333055509252,0,0,0,45.0
80283,-0.06499916652775463,0.02113518919819972,-9.808911105184198,0.01,-0.020006667777962995,-0.009998333055509252,0,0,0,45.12
80292,-0.06499916652775463,0.02113518919819972,-9.808911105184198,0.01,-0.010006667777962995,1.6669444907484581e-06,0,0,0,45.12
80303,-0.06499916652775463,0.031135189198199714,-9.808911105184198,0.0,-6.6677779629938325e-06,1.6669444907484581e-06,0,0,0,45.0
80313,-0.06499916652775463,0.031135189198199714,-9.808911105184198,0.0,0.009993332222037006,1.6669444907484581e-06,0,0,0,45.12
80322,-0.05499916652775462,0.031135189198199714,-9.808911105184198,0.0,0.009993332222037006,1.6669444907484581e-06,0,0,0,44.93
80333,-0.05499916652775462,0.031135189198199714,-9.808911105184198,0.01,0.009993332222037006,1.6669444907484581e-06,0,0,0,45.06
80342,-0.06499916652775463,0.02113518919819972,-9.818911105184197,0.0,0.009993332222037006,1.6669444907484581e-06,0,0,0,45.25
80353,-0.05499916652775462,0.02113518919819972,-9.818911105184197,0.0,0.009993332222037006,1.6669444907484581e-06,0,0,0,45.12
80363,-0.05499916652775462,0.031135189198199714,-9.808911105184198,-0.01,0.009993332222037006,1.6669444907484581e-06,0,0,0,45.12
80372,-0.05499916652775462,0.031135189198199714,-9.808911105184198,-0.01,0.009993332222037006,1.6669444907484581e-06,0,0,0,45.0
80383,-0.05499916652775462,0.031135189198199714,-9.818911105184197,-0.01,0.009993332222037006,1.6669444907484581e-06,0,0,0,44.75
80392,-0.06499916652775463,0.031135189198199714,-9.818911105184197,0.0,0.019993332222037006,1.6669444907484581e-06,0,0,0,45.12
80403,-0.06499916652775463,0.031135189198199714,-9.808911105184198,-0.01,0.029993332222037004,1.6669444907484581e-06,0,0,0,45.12
80413,-0.05499916652775462,0.031135189198199714,-9.798911105184198,-0.02,0.029993332222037004,1.6669444907484581e-06,0,0,0,45.0
80422,-0.05499916652775462,0.02113518919819972,-9.808911105184198,-0.02,0.019993332222037006,1.6669444907484581e-06,0,0,0,45.0
80433,-0.05499916652775462,0.02113518919819972,-9.808911105184198,-0.02,0.019993332222037006,1.6669444907484581e-06,0,0,0,45.0
80442,-0.06499916652775463,0.02113518919819972,-9.808911105184198,-0.01,0.019993332222037006,1.6669444907484581e-06,0,0,0,45.31
80453,-0.05499916652775462,0.031135189198199714,-9.808911105184198,-0.02,0.019993332222037006,1.6669444907484581e-06,0,0,0,45.0
80463,-0.044999166527754625,0.031135189198199714,-9.808911105184198,-0.02,0.009993332222037006,1.6669444907484581e-06,0,0,0,45.0
80472,-0.05499916652775462,0.04113518919819971,-9.818911105184197,-0.02,-6.6677779629938325e-06,1.6669444907484581e-06,0,0,0,45.06
80483,-0.05499916652775462,0.031135189198199714,-9.808911105184198,-0.01,-6.6677779629938325e-06,1.6669444907484581e-06,0,0,0,45.0
80492,-0.05499916652775462,0.031135189198199714,-9.808911105184198,0.0,-6.6677779629938325e-06,1.6669444907484581e-06,0,0,0,45.12
80503,-0.05499916652775462,0.031135189198199714,-9.818911105184197,0.0,-6.6677779629938325e-06,1.6669444907484581e-06,0,0,0,45.12
80513,-0.044999166527754625,0.031135189198199714,-9.808911105184198,0.01,0.009993332222037006,1.6669444907484581e-06,0,0,0,44.93
80522,-0.05499916652775462,0.031135189198199714,-9.808911105184198,0.02,0.009993332222037006,1.6669444907484581e-06,0,0,0,45.25
80533,-0.05499916652775462,0.031135189198199714,-9.808911105184198,0.02,-6.6677779629938325e-06,-0.009998333055509252,0,0,0,45.0
80542,-0.05499916652775462,0.031135189198199714,-9.818911105184197,0.01,-6.6677779629938325e-06,1.6669444907484581e-06,0,0,0,45.0
80553,-0.05499916652775462,0.02113518919819972,-9.818911105184197,0.01,-0.010006667777962995,1.6669444907484581e-06,0,0,0,45.12
80563,-0.05499916652775462,0.031135189198199714,-9.818911105184197,0.0,-6.6677779629938325e-06,1.6669444907484581e-06,0,0,0,45.0
