Timestamp,Accelerometer_X,Accelerometer_Y,Accelerometer_Z,Gyroscope_X,Gyroscope_Y,Gyroscope_Z,Magnetometer_X,Magnetometer_Y,Magnetometer_Z,Abs_Pressure,Temperature
71120,0.0027071178529755185,0.0004100683447241238,-9.810418023003836,2.3337222870478414e-05,-6.334389064844141e-05,-5.000833472245374e-06,0,0,0,42.93
71133,0.0027071178529755185,0.0004100683447241238,-9.810418023003836,2.3337222870478414e-05,-6.334389064844141e-05,-5.000833472245374e-06,0,0,0,43.06
71153,-0.0072928821470244765,0.0004100683447241238,-9.810418023003836,2.3337222870478414e-05,-6.334389064844141e-05,-5.000833472245374e-06,0,0,0,42.87
71163,-0.0072928821470244765,0.0004100683447241238,-9.810418023003836,2.3337222870478414e-05,-6.334389064844141e-05,-5.000833472245374e-06,0,0,0,42.93
71172,-0.0072928821470244765,0.0004100683447241238,-9.810418023003836,2.3337222870478414e-05,-6.334389064844141e-05,-5.000833472245374e-06,0,0,0,43.0
71183,-0.0072928821470244765,0.0004100683447241238,-9.820418023003835,2.3337222870478414e-05,-6.334389064844141e-05,-5.000833472245374e-06,0,0,0,42.93
71192,-0.0072928821470244765,0.0004100683447241238,-9.810418023003836,2.3337222870478414e-05,-6.334389064844141e-05,-5.000833472245374e-06,0,0,0,43.06
71203,0.0027071178529755185,0.0004100683447241238,-9.810418023003836,2.3337222870478414e-05,-6.334389064844141e-05,-5.000833472245374e-06,0,0,0,42.93
71213,0.0027071178529755185,0.0004100683447241238,-9.820418023003835,2.3337222870478414e-05,-6.334389064844141e-05,-5.000833472245374e-06,0,0,0,42.87
71222,-0.0072928821470244765,0.0004100683447241238,-9.820418023003835,2.3337222870478414e-05,-6.334389064844141e-05,-5.000833472245374e-06,0,0,0,42.87
71233,-0.0072928821470244765,0.0004100683447241238,-9.810418023003836,2.3337222870478414e-05,-6.334389064844141e-05,-5.000833472245374e-06,0,0,0,43.06
71242,0.0027071178529755185,0.0004100683447241238,-9.810418023003836,2.3337222870478414e-05,-6.334389064844141e-05,-5.000833472245374e-06,0,0,0,43.12
71253,0.0027071178529755185,0.010410068344724122,-9.820418023003835,2.3337222870478414e-05,-6.334389064844141e-05,-5.000833472245374e-06,0,0,0,43.0
71263,0.0027071178529755185,0.0004100683447241238,-9.820418023003835,2.3337222870478414e-05,-6.334389064844141e-05,-5.000833472245374e-06,0,0,0,43.0
71272,0.0027071178529755185,0.0004100683447241238,-9.810418023003836,2.3337222870478414e-05,-6.334389064844141e-05,-5.000833472245374e-06,0,0,0,42.87
71283,-0.0072928821470244765,0.0004100683447241238,-9.820418023003835,2.3337222870478414e-05,-6.334389064844141e-05,-5.000833472245374e-06,0,0,0,42.81
71292,0.0027071178529755185,0.0004100683447241238,-9.820418023003835,2.3337222870478414e-05,-6.334389064844141e-05,-5.000833472245374e-06,0,0,0,42.93
71303,-0.0072928821470244765,0.010410068344724122,-9.820418023003835,2.3337222870478414e-05,-6.334389064844141e-05,-5.000833472245374e-06,0,0,0,42.93
71313,-0.0072928821470244765,0.010410068344724122,-9.810418023003836,2.3337222870478414e-05,-6.334389064844141e-05,-5.000833472245374e-06,0,0,0,42.68
71322,0.0027071178529755185,0.010410068344724122,-9.810418023003836,2.3337222870478414e-05,-6.334389064844141e-05,-5.000833472245374e-06,0,0,0,43.0
71333,-0.0072928821470244765,0.0004100683447241238,-9.810418023003836,2.3337222870478414e-05,-6.334389064844141e-05,-5.000833472245374e-06,0,0,0,43.25
71342,0.0027071178529755185,-0.009589931655275876,-9.820418023003835,2.3337222870478414e-05,-6.334389064844141e-05,-5.000833472245374e-06,0,0,0,42.93
71353,0.0027071178529755185,0.0004100683447241238,-9.810418023003836,2.3337222870478414e-05,-6.334389064844141e-05,-5.000833472245374e-06,0,0,0,43.18
71363,0.0027071178529755185,0.010410068344724122,-9.810418023003836,2.3337222870478414e-05,-6.334389064844141e-05,-5.000833472245374e-06,0,0,0,43.25
71372,0.0027071178529755185,0.010410068344724122,-9.800418023003836,2.3337222870478414e-05,-6.334389064844141e-05,-5.000833472245374e-06,0,0,0,43.06
71383,0.0027071178529755185,0.0004100683447241238,-9.810418023003836,2.3337222870478414e-05,-6.334389064844141e-05,-5.000833472245374e-06,0,0,0,43.06
71392,0.0027071178529755185,0.0004100683447241238,-9.820418023003835,2.3337222870478414e-05,-6.334389064844141e-05,-5.000833472245374e-06,0,0,0,42.81
71403,-0.0072928821470244765,0.0004100683447241238,-9.810418023003836,2.3337222870478414e-05,-6.334389064844141e-05,-5.000833472245374e-06,0,0,0,42.93
71413,-0.0072928821470244765,0.0004100683447241238,-9.800418023003836,2.3337222870478414e-05,-6.334389064844141e-05,-5.000833472245374e-06,0,0,0,42.87
71422,-0.0072928821470244765,0.0004100683447241238,-9.810418023003836,2.3337222870478414e-05,-6.334389064844141e-05,-5.000833472245374e-06,0,0,0,43.06
71433,-0.0072928821470244765,0.0004100683447241238,-9.810418023003836,2.3337222870478414e-05,-6.334389064844141e-05,-5.000833472245374e-06,0,0,0,42.93
71442,0.0027071178529755185,0.0004100683447241238,-9.810418023003836,2.3337222870478414e-05,-6.334389064844141e-05,-5.000833472245374e-06,0,0,0,43.0
71453,0.0027071178529755185,0.0004100683447241238,-9.820418023003835,2.3337222870478414e-05,-6.334389064844141e-05,-5.000833472245374e-06,0,0,0,43.06
71463,0.0027071178529755185,0.0004100683447241238,-9.820418023003835,2.3337222870478414e-05,-6.334389064844141e-05,-5.000833472245374e-06,0,0,0,43.12
71472,0.0027071178529755185,0.0004100683447241238,-9.810418023003836,2.3337222870478414e-05,-6.334389064844141e-05,-5.000833472245374e-06,0,0,0,43.12
71483,0.012707117852975527,0.0004100683447241238,-9.810418023003836,2.3337222870478414e-05,-6.334389064844141e-05,-5.000833472245374e-06,0,0,0,43.06
71492,0.0027071178529755185,-0.009589931655275876,-9.810418023003836,2.3337222870478414e-05,-6.334389064844141e-05,-5.000833472245374e-06,0,0,0,42.87
71503,0.0027071178529755185,0.0004100683447241238,-9.810418023003836,2.3337222870478414e-05,-6.334389064844141e-05,-5.000833472245374e-06,0,0,0,42.81
71513,0.0027071178529755185,0.0004100683447241238,-9.820418023003835,2.3337222870478414e-05,-6.334389064844141e-05,-5.000833472245374e-06,0,0,0,42.87
71522,0.0027071178529755185,0.0004100683447241238,-9.820418023003835,2.3337222870478414e-05,-6.334389064844141e-05,-5.000833472245374e-06,0,0,0,42.93
71533,0.0027071178529755185,0.0004100683447241238,-9.810418023003836,2.3337222870478414e-05,-6.334389064844141e-05,-5.000833472245374e-06,0,0,0,43.18
71542,0.0027071178529755185,0.0004100683447241238,-9.810418023003836,2.3337222870478414e-05,-6.334389064844141e-05,-5.000833472245374e-06,0,0,0,42.87
71553,0.0027071178529755185,0.0004100683447241238,-9.820418023003835,2.3337222870478414e-05,-6.334389064844141e-05,-5.000833472245374e-06,0,0,0,43.12
71563,0.0027071178529755185,0.0004100683447241238,-9.810418023003836,2.3337222870478414e-05,-6.334389064844141e-05,-5.000833472245374e-06,0,0,0,43.06
71572,0.0027071178529755185,0.0004100683447241238,-9.800418023003836,2.3337222870478414e-05,-6.334389064844141e-05,-5.000833472245374e-06,0,0,0,43.06
71583,0.0027071178529755185,0.0004100683447241238,-9.810418023003836,2.3337222870478414e-05,-6.334389064844141e-05,-5.000833472245374e-06,0,0,0,43.06
71592,0.012707117852975527,0.0004100683447241238,-9.820418023003835,2.3337222870478414e-05,-6.334389064844141e-05,-5.000833472245374e-06,0,0,0,42.87
71603,0.0027071178529755185,0.010410068344724122,-9.820418023003835,2.3337222870478414e-05,-6.334389064844141e-05,-5.000833472245374e-06,0,0,0,42.87
71613,0.0027071178529755185,0.0004100683447241238,-9.810418023003836,2.3337222870478414e-05,-6.334389064844141e-05,-5.000833472245374e-06,0,0,0,43.06
71622,-0.0072928821470244765,0.0004100683447241238,-9.810418023003836,2.3337222870478414e-05,-6.334389064844141e-05,-5.000833472245374e-06,0,0,0,42.93
71633,0.0027071178529755185,0.0004100683447241238,-9.810418023003836,2.3337222870478414e-05,-6.334389064844141e-05,-5.000833472245374e-06,0,0,0,42.93
71642,0.0027071178529755185,-0.009589931655275876,-9.820418023003835,2.3337222870478414e-05,-6.334389064844141e-05,-5.000833472245374e-06,0,0,0,43.06
71653,-0.0072928821470244765,-0.009589931655275876,-9.820418023003835,2.3337222870478414e-05,-6.334389064844141e-05,-5.000833472245374e-06,0,0,0,43.0
71663,-0.0072928821470244765,0.0004100683447241238,-9.810418023003836,2.3337222870478414e-05,-6.334389064844141e-05,-5.000833472245374e-06,0,0,0,43.0
71672,0.0027071178529755185,0.0004100683447241238,-9.810418023003836,2.3337222870478414e-05,-6.334389064844141e-05,-5.000833472245374e-06,0,0,0,42.93
71683,0.0027071178529755185,0.0004100683447241238,-9.810418023003836,2.3337222870478414e-05,-6.334389064844141e-05,-5.000833472245374e-06,0,0,0,42.81
71692,0.0027071178529755185,0.0004100683447241238,-9.810418023003836,2.3337222870478414e-05,-6.334389064844141e-05,-5.000833472245374e-06,0,0,0,42.93
71703,0.0027071178529755185,0.0004100683447241238,-9.810418023003836,2.3337222870478414e-05,-6.334389064844141e-05,-5.000833472245374e-06,0,0,0,42.81
71713,0.0027071178529755185,0.0004100683447241238,-9.810418023003836,2.3337222870478414e-05,-6.334389064844141e-05,-5.000833472245374e-06,0,0,0,43.06
71722,0.0027071178529755185,0.0004100683447241238,-9.810418023003836,2.3337222870478414e-05,-6.334389064844141e-05,-5.000833472245374e-06,0,0,0,42.81
71733,0.0027071178529755185,0.0004100683447241238,-9.810418023003836,2.3337222870478414e-05,-6.334389064844141e-05,-5.000833472245374e-06,0,0,0,42.93
71742,0.0027071178529755185,0.010410068344724122,-9.810418023003836,2.3337222870478414e-05,-6.334389064844141e-05,-5.000833472245374e-06,0,0,0,43.06
71753,0.0027071178529755185,0.0004100683447241238,-9.820418023003835,2.3337222870478414e-05,-6.334389064844141e-05,-5.000833472245374e-06,0,0,0,42.87
71763,0.0027071178529755185,0.0004100683447241238,-9.810418023003836,2.3337222870478414e-05,-6.334389064844141e-05,-5.000833472245374e-06,0,0,0,43.0
71772,0.0027071178529755185,0.0004100683447241238,-9.800418023003836,2.3337222870478414e-05,-6.334389064844141e-05,-5.000833472245374e-06,0,0,0,42.93
71783,0.0027071178529755185,0.0004100683447241238,-9.800418023003836,2.3337222870478414e-05,-6.334389064844141e-05,-5.000833472245374e-06,0,0,0,43.06
71792,0.0027071178529755185,0.0004100683447241238,-9.810418023003836,2.3337222870478414e-05,-6.334389064844141e-05,-5.000833472245374e-06,0,0,0,43.06
71803,0.0027071178529755185,0.0004100683447241238,-9.810418023003836,2.3337222870478414e-05,-6.334389064844141e-05,-5.000833472245374e-06,0,0,0,42.68
71813,0.0027071178529755185,0.0004100683447241238,-9.820418023003835,2.3337222870478414e-05,-6.334389064844141e-05,-5.000833472245374e-06,0,0,0,42.87
71822,0.0027071178529755185,0.0004100683447241238,-9.810418023003836,2.3337222870478414e-05,-6.334389064844141e-05,-5.000833472245374e-06,0,0,0,43.06
71833,0.0027071178529755185,0.0004100683447241238,-9.810418023003836,2.3337222870478414e-05,-6.334389064844141e-05,-5.000833472245374e-06,0,0,0,42.93
71842,-0.0072928821470244765,0.0004100683447241238,-9.810418023003836,2.3337222870478414e-05,-6.334389064844141e-05,-5.000833472245374e-06,0,0,0,42.93
71853,0.0027071178529755185,0.0004100683447241238,-9.810418023003836,2.3337222870478414e-05,-6.334389064844141e-05,-5.000833472245374e-06,0,0,0,42.93
71863,0.0027071178529755185,0.0004100683447241238,-9.810418023003836,2.3337222870478414e-05,-6.334389064844141e-05,-5.000833472245374e-06,0,0,0,42.93
71872,0.0027071178529755185,0.0004100683447241238,-9.810418023003836,2.3337222870478414e-05,-6.334389064844141e-05,-5.000833472245374e-06,0,0,0,43.06
71883,0.0027071178529755185,0.010410068344724122,-9.810418023003836,2.3337222870478414e-05,-6.334389064844141e-05,-5.000833472245374e-06,0,0,0,43.06
71892,-0.0072928821470244765,0.0004100683447241238,-9.810418023003836,2.3337222870478414e-05,-6.334389064844141e-05,-5.000833472245374e-06,0,0,0,43.06
71903,0.0027071178529755185,0.010410068344724122,-9.820418023003835,2.3337222870478414e-05,-6.334389064844141e-05,-5.000833472245374e-06,0,0,0,42.75
71913,-0.0072928821470244765,0.010410068344724122,-9.820418023003835,2.3337222870478414e-05,-6.334389064844141e-05,-5.000833472245374e-06,0,0,0,43.06
71922,-0.0072928821470244765,0.010410068344724122,-9.810418023003836,2.3337222870478414e-05,-6.334389064844141e-05,-5.000833472245374e-06,0,0,0,42.93
71933,0.0027071178529755185,0.0004100683447241238,-9.800418023003836,2.3337222870478414e-05,-6.334389064844141e-05,-5.000833472245374e-06,0,0,0,43.06
71942,0.0027071178529755185,-0.009589931655275876,-9.810418023003836,2.3337222870478414e-05,-6.334389064844141e-05,-5.000833472245374e-06,0,0,0,42.87
71953,0.0027071178529755185,0.0004100683447241238,-9.820418023003835,2.3337222870478414e-05,-6.334389064844141e-05,-5.000833472245374e-06,0,0,0,43.06
71963,0.0027071178529755185,0.0004100683447241238,-9.810418023003836,2.3337222870478414e-05,-6.334389064844141e-05,-5.000833472245374e-06,0,0,0,42.93
71972,0.0027071178529755185,0.0004100683447241238,-9.820418023003835,2.3337222870478414e-05,-6.334389064844141e-05,-5.000833472245374e-06,0,0,0,43.0
71983,0.0027071178529755185,0.0004100683447241238,-9.820418023003835,2.3337222870478414e-05,-6.334389064844141e-05,-5.000833472245374e-06,0,0,0,42.93
71992,0.0027071178529755185,-0.009589931655275876,-9.820418023003835,2.3337222870478414e-05,-6.334389064844141e-05,-5.000833472245374e-06,0,0,0,43.0
72003,0.0027071178529755185,0.0004100683447241238,-9.810418023003836,2.3337222870478414e-05,-6.334389064844141e-05,-5.000833472245374e-06,0,0,0,43.0
72013,0.0027071178529755185,0.0004100683447241238,-9.810418023003836,2.3337222870478414e-05,-6.334389064844141e-05,-5.000833472245374e-06,0,0,0,42.93
72022,0.0027071178529755185,0.0004100683447241238,-9.810418023003836,2.3337222870478414e-05,-6.334389064844141e-05,-5.000833472245374e-06,0,0,0,42.87
72033,0.0027071178529755185,0.0004100683447241238,-9.810418023003836,2.3337222870478414e-05,-6.334389064844141e-05,-5.000833472245374e-06,0,0,0,43.06
72042,0.0027071178529755185,-0.009589931655275876,-9.810418023003836,2.3337222870478414e-05,-6.334389064844141e-05,-5.000833472245374e-06,0,0,0,43.06
72053,-0.0072928821470244765,-0.009589931655275876,-9.810418023003836,2.3337222870478414e-05,-6.334389064844141e-05,-5.000833472245374e-06,0,0,0,42.93
72063,0.0027071178529755185,0.0004100683447241238,-9.810418023003836,2.3337222870478414e-05,-6.334389064844141e-05,-5.000833472245374e-06,0,0,0,42.81
72072,0.0027071178529755185,0.0004100683447241238,-9.820418023003835,2.3337222870478414e-05,-6.334389064844141e-05,-5.000833472245374e-06,0,0,0,43.18
72083,0.0027071178529755185,0.0004100683447241238,-9.820418023003835,2.3337222870478414e-05,-6.334389064844141e-05,-5.000833472245374e-06,0,0,0,42.93
72092,-0.0072928821470244765,0.010410068344724122,-9.820418023003835,2.3337222870478414e-05,-6.334389064844141e-05,-5.000833472245374e-06,0,0,0,43.06
72103,0.0027071178529755185,0.010410068344724122,-9.810418023003836,2.3337222870478414e-05,-6.334389064844141e-05,-5.000833472245374e-06,0,0,0,43.06
72113,0.0027071178529755185,0.0004100683447241238,-9.810418023003836,2.3337222870478414e-05,-6.334389064844141e-05,-5.000833472245374e-06,0,0,0,42.87
72122,-0.0072928821470244765,0.0004100683447241238,-9.820418023003835,2.3337222870478414e-05,-6.334389064844141e-05,-5.000833472245374e-06,0,0,0,42.93
72133,-0.0072928821470244765,0.0004100683447241238,-9.810418023003836,2.3337222870478414e-05,-6.334389064844141e-05,-5.000833472245374e-06,0,0,0,43.06
72142,-0.0072928821470244765,0.0004100683447241238,-9.810418023003836,2.3337222870478414e-05,-6.334389064844141e-05,-5.000833472245374e-06,0,0,0,42.87
72153,-0.0072928821470244765,0.0004100683447241238,-9.810418023003836,2.3337222870478414e-05,-6.334389064844141e-05,-5.000833472245374e-06,0,0,0,43.06
72163,0.0027071178529755185,0.0004100683447241238,-9.810418023003836,2.3337222870478414e-05,-6.334389064844141e-05,-5.000833472245374e-06,0,0,0,43.06
72172,0.0027071178529755185,0.0004100683447241238,-9.810418023003836,2.3337222870478414e-05,-6.334389064844141e-05,-5.000833472245374e-06,0,0,0,42.87
72183,0.0027071178529755185,0.0004100683447241238,-9.820418023003835,2.3337222870478414e-05,-6.334389064844141e-05,-5.000833472245374e-06,0,0,0,43.06
72192,-0.0072928821470244765,0.0004100683447241238,-9.820418023003835,2.3337222870478414e-05,-6.334389064844141e-05,-5.000833472245374e-06,0,0,0,42.93
72203,-0.0072928821470244765,0.010410068344724122,-9.810418023003836,2.3337222870478414e-05,-6.334389064844141e-05,-5.000833472245374e-06,0,0,0,42.93
72213,0.0027071178529755185,0.0004100683447241238,-9.810418023003836,2.3337222870478414e-05,-6.334389064844141e-05,-5.000833472245374e-06,0,0,0,42.93
72222,0.0027071178529755185,0.010410068344724122,-9.800418023003836,2.3337222870478414e-05,-6.334389064844141e-05,-5.000833472245374e-06,0,0,0,43.0
72233,0.0027071178529755185,0.0004100683447241238,-9.810418023003836,2.3337222870478414e-05,-6.334389064844141e-05,-5.000833472245374e-06,0,0,0,42.93
72242,0.0027071178529755185,-0.009589931655275876,-9.810418023003836,2.3337222870478414e-05,-6.334389064844141e-05,-5.000833472245374e-06,0,0,0,43.0
72253,0.0027071178529755185,-0.009589931655275876,-9.810418023003836,2.3337222870478414e-05,-6.334389064844141e-05,-5.000833472245374e-06,0,0,0,43.18
72263,0.0027071178529755185,0.0004100683447241238,-9.810418023003836,2.3337222870478414e-05,-6.334389064844141e-05,-5.000833472245374e-06,0,0,0,43.06
72272,0.0027071178529755185,0.0004100683447241238,-9.810418023003836,2.3337222870478414e-05,-6.334389064844141e-05,-5.000833472245374e-06,0,0,0,42.75
72283,0.0027071178529755185,0.0004100683447241238,-9.810418023003836,2.3337222870478414e-05,-6.334389064844141e-05,-5.000833472245374e-06,0,0,0,42.87
72292,0.0027071178529755185,0.0004100683447241238,-9.820418023003835,2.3337222870478414e-05,-6.334389064844141e-05,-5.000833472245374e-06,0,0,0,42.93
72303,-0.0072928821470244765,-0.009589931655275876,-9.820418023003835,2.3337222870478414e-05,-6.334389064844141e-05,-5.000833472245374e-06,0,0,0,42.87
72313,0.0027071178529755185,0.0004100683447241238,-9.820418023003835,2.3337222870478414e-05,-6.334389064844141e-05,-5.000833472245374e-06,0,0,0,43.0
72322,0.0027071178529755185,0.0004100683447241238,-9.820418023003835,2.3337222870478414e-05,-6.334389064844141e-05,-5.000833472245374e-06,0,0,0,43.25
72333,0.0027071178529755185,0.0004100683447241238,-9.800418023003836,2.3337222870478414e-05,-6.334389064844141e-05,-5.000833472245374e-06,0,0,0,43.06
72342,-0.0072928821470244765,0.010410068344724122,-9.810418023003836,2.3337222870478414e-05,-6.334389064844141e-05,-5.000833472245374e-06,0,0,0,42.93
72353,0.0027071178529755185,0.0004100683447241238,-9.820418023003835,2.3337222870478414e-05,-6.334389064844141e-05,-5.000833472245374e-06,0,0,0,42.93
72363,0.0027071178529755185,-0.009589931655275876,-9.810418023003836,2.3337222870478414e-05,-6.334389064844141e-05,-5.000833472245374e-06,0,0,0,43.0
72372,0.0027071178529755185,0.0004100683447241238,-9.810418023003836,2.3337222870478414e-05,-6.334389064844141e-05,-5.000833472245374e-06,0,0,0,42.87
72383,-0.0072928821470244765,0.0004100683447241238,-9.810418023003836,2.3337222870478414e-05,-6.334389064844141e-05,-5.000833472245374e-06,0,0,0,42.68
72392,0.0027071178529755185,0.0004100683447241238,-9.820418023003835,2.3337222870478414e-05,-6.334389064844141e-05,-5.000833472245374e-06,0,0,0,43.06
72403,0.0027071178529755185,0.0004100683447241238,-9.820418023003835,2.3337222870478414e-05,-6.334389064844141e-05,-5.000833472245374e-06,0,0,0,42.93
72413,-0.0072928821470244765,-0.009589931655275876,-9.820418023003835,2.3337222870478414e-05,-6.334389064844141e-05,-5.000833472245374e-06,0,0,0,42.93
72422,0.0027071178529755185,-0.009589931655275876,-9.820418023003835,2.3337222870478414e-05,-6.334389064844141e-05,-5.000833472245374e-06,0,0,0,42.93
72433,0.0027071178529755185,-0.009589931655275876,-9.810418023003836,2.3337222870478414e-05,-6.334389064844141e-05,-5.000833472245374e-06,0,0,0,43.06
72442,-0.0072928821470244765,-0.009589931655275876,-9.800418023003836,2.3337222870478414e-05,-6.334389064844141e-05,-5.000833472245374e-06,0,0,0,43.0
72453,-0.0072928821470244765,0.0004100683447241238,-9.800418023003836,2.3337222870478414e-05,-6.334389064844141e-05,-5.000833472245374e-06,0,0,0,42.75
72463,-0.0072928821470244765,0.0004100683447241238,-9.810418023003836,2.3337222870478414e-05,-6.334389064844141e-05,-5.000833472245374e-06,0,0,0,43.06
72472,-0.0072928821470244765,-0.009589931655275876,-9.820418023003835,2.3337222870478414e-05,-6.334389064844141e-05,-5.000833472245374e-06,0,0,0,42.81
72483,-0.0072928821470244765,0.0004100683447241238,-9.820418023003835,2.3337222870478414e-05,-6.334389064844141e-05,-5.000833472245374e-06,0,0,0,42.81
72492,0.0027071178529755185,-0.009589931655275876,-9.820418023003835,2.3337222870478414e-05,-6.334389064844141e-05,-5.000833472245374e-06,0,0,0,42.93
72503,-0.0072928821470244765,0.0004100683447241238,-9.820418023003835,2.3337222870478414e-05,-6.334389064844141e-05,-5.000833472245374e-06,0,0,0,42.81
72513,-0.0072928821470244765,0.0004100683447241238,-9.820418023003835,2.3337222870478414e-05,-6.334389064844141e-05,-5.000833472245374e-06,0,0,0,43.06
72522,-0.0072928821470244765,0.0004100683447241238,-9.810418023003836,2.3337222870478414e-05,-6.334389064844141e-05,-5.000833472245374e-06,0,0,0,43.0
72533,-0.0072928821470244765,0.010410068344724122,-9.800418023003836,2.3337222870478414e-05,-6.334389064844141e-05,-5.000833472245374e-06,0,0,0,43.12
72542,0.0027071178529755185,0.0004100683447241238,-9.810418023003836,2.3337222870478414e-05,-6.334389064844141e-05,-5.000833472245374e-06,0,0,0,42.93
72553,0.0027071178529755185,0.0004100683447241238,-9.810418023003836,2.3337222870478414e-05,-6.334389064844141e-05,-5.000833472245374e-06,0,0,0,43.12
72563,0.0027071178529755185,0.0004100683447241238,-9.810418023003836,2.3337222870478414e-05,-6.334389064844141e-05,-5.000833472245374e-06,0,0,0,42.81
72572,0.0027071178529755185,0.0004100683447241238,-9.820418023003835,2.3337222870478414e-05,-6.334389064844141e-05,-5.000833472245374e-06,0,0,0,42.87
72583,-0.0072928821470244765,0.0004100683447241238,-9.810418023003836,2.3337222870478414e-05,-6.334389064844141e-05,-5.000833472245374e-06,0,0,0,43.18
72592,-0.0072928821470244765,-0.009589931655275876,-9.800418023003836,2.3337222870478414e-05,-6.334389064844141e-05,-5.000833472245374e-06,0,0,0,43.06
72603,-0.0072928821470244765,0.0004100683447241238,-9.800418023003836,2.3337222870478414e-05,-6.334389064844141e-05,-5.000833472245374e-06,0,0,0,43.12
72613,-0.0072928821470244765,0.010410068344724122,-9.810418023003836,2.3337222870478414e-05,-6.334389064844141e-05,-5.000833472245374e-06,0,0,0,42.93
72622,-0.0072928821470244765,0.010410068344724122,-9.810418023003836,2.3337222870478414e-05,-6.334389064844141e-05,-5.000833472245374e-06,0,0,0,43.12
72633,-0.0072928821470244765,0.0004100683447241238,-9.820418023003835,2.3337222870478414e-05,-6.334389064844141e-05,-5.000833472245374e-06,0,0,0,42.93
72642,0.0027071178529755185,0.0004100683447241238,-9.820418023003835,2.3337222870478414e-05,-6.334389064844141e-05,-5.000833472245374e-06,0,0,0,42.93
72653,0.0027071178529755185,0.0004100683447241238,-9.820418023003835,2.3337222870478414e-05,-6.334389064844141e-05,-5.000833472245374e-06,0,0,0,42.87
72663,0.0027071178529755185,0.0004100683447241238,-9.810418023003836,2.3337222870478414e-05,-6.334389064844141e-05,-5.000833472245374e-06,0,0,0,42.93
72672,0.0027071178529755185,0.0004100683447241238,-9.810418023003836,2.3337222870478414e-05,-6.334389064844141e-05,-5.000833472245374e-06,0,0,0,43.12
72683,0.0027071178529755185,0.0004100683447241238,-9.810418023003836,2.3337222870478414e-05,-6.334389064844141e-05,-5.000833472245374e-06,0,0,0,42.81
72692,0.0027071178529755185,0.0004100683447241238,-9.810418023003836,2.3337222870478414e-05,-6.334389064844141e-05,-5.000833472245374e-06,0,0,0,42.87
72703,-0.0072928821470244765,0.0004100683447241238,-9.810418023003836,2.3337222870478414e-05,-6.334389064844141e-05,-5.000833472245374e-06,0,0,0,43.06
72713,0.0027071178529755185,-0.009589931655275876,-9.810418023003836,2.3337222870478414e-05,-6.334389064844141e-05,-5.000833472245374e-06,0,0,0,42.87
72722,0.0027071178529755185,0.0004100683447241238,-9.810418023003836,2.3337222870478414e-05,-6.334389064844141e-05,-5.000833472245374e-06,0,0,0,43.37
72733,0.0027071178529755185,-0.009589931655275876,-9.810418023003836,2.3337222870478414e-05,-6.334389064844141e-05,-5.000833472245374e-06,0,0,0,43.0
72742,-0.0072928821470244765,-0.009589931655275876,-9.810418023003836,2.3337222870478414e-05,-6.334389064844141e-05,-5.000833472245374e-06,0,0,0,42.93
72753,-0.0072928821470244765,-0.009589931655275876,-9.810418023003836,2.3337222870478414e-05,-6.334389064844141e-05,-5.000833472245374e-06,0,0,0,42.93
72763,0.0027071178529755185,-0.009589931655275876,-9.810418023003836,2.3337222870478414e-05,-6.334389064844141e-05,-5.000833472245374e-06,0,0,0,43.12
72772,-0.0072928821470244765,0.0004100683447241238,-9.810418023003836,2.3337222870478414e-05,-6.334389064844141e-05,-5.000833472245374e-06,0,0,0,43.18
72783,0.0027071178529755185,0.0004100683447241238,-9.810418023003836,2.3337222870478414e-05,-6.334389064844141e-05,-5.000833472245374e-06,0,0,0,42.93
72792,0.0027071178529755185,0.0004100683447241238,-9.810418023003836,2.3337222870478414e-05,-6.334389064844141e-05,-5.000833472245374e-06,0,0,0,43.06
72803,-0.0072928821470244765,-0.009589931655275876,-9.810418023003836,2.3337222870478414e-05,-6.334389064844141e-05,-5.000833472245374e-06,0,0,0,43.12
72813,-0.0072928821470244765,-0.009589931655275876,-9.810418023003836,2.3337222870478414e-05,-6.334389064844141e-05,-5.000833472245374e-06,0,0,0,42.87
72822,-0.0072928821470244765,-0.009589931655275876,-9.810418023003836,2.3337222870478414e-05,-6.334389064844141e-05,-5.000833472245374e-06,0,0,0,43.06
72833,0.0027071178529755185,0.0004100683447241238,-9.810418023003836,2.3337222870478414e-05,-6.334389064844141e-05,-5.000833472245374e-06,0,0,0,43.06
72842,0.0027071178529755185,0.0004100683447241238,-9.810418023003836,2.3337222870478414e-05,-6.334389064844141e-05,-5.000833472245374e-06,0,0,0,43.06
72853,0.0027071178529755185,0.0004100683447241238,-9.820418023003835,2.3337222870478414e-05,-6.334389064844141e-05,-5.000833472245374e-06,0,0,0,43.06
72863,0.0027071178529755185,0.0004100683447241238,-9.810418023003836,2.3337222870478414e-05,-6.334389064844141e-05,-5.000833472245374e-06,0,0,0,42.93
72872,0.0027071178529755185,0.0004100683447241238,-9.820418023003835,2.3337222870478414e-05,-6.334389064844141e-05,-5.000833472245374e-06,0,0,0,43.06
72883,0.0027071178529755185,0.0004100683447241238,-9.820418023003835,2.3337222870478414e-05,-6.334389064844141e-05,-5.000833472245374e-06,0,0,0,43.06
72892,-0.0072928821470244765,-0.009589931655275876,-9.820418023003835,2.3337222870478414e-05,-6.334389064844141e-05,-5.000833472245374e-06,0,0,0,43.06
72903,0.0027071178529755185,-0.009589931655275876,-9.820418023003835,2.3337222870478414e-05,-6.334389064844141e-05,-5.000833472245374e-06,0,0,0,43.06
72913,0.0027071178529755185,0.0004100683447241238,-9.820418023003835,2.3337222870478414e-05,-6.334389064844141e-05,-5.000833472245374e-06,0,0,0,42.93
72922,0.0027071178529755185,0.0004100683447241238,-9.810418023003836,2.3337222870478414e-05,-6.334389064844141e-05,-5.000833472245374e-06,0,0,0,42.93
72933,-0.0072928821470244765,0.0004100683447241238,-9.800418023003836,2.3337222870478414e-05,-6.334389064844141e-05,-5.000833472245374e-06,0,0,0,43.06
72942,-0.0072928821470244765,0.0004100683447241238,-9.810418023003836,2.3337222870478414e-05,-6.334389064844141e-05,-5.000833472245374e-06,0,0,0,43.0
72953,-0.0072928821470244765,0.0004100683447241238,-9.820418023003835,2.3337222870478414e-05,-6.334389064844141e-05,-5.000833472245374e-06,0,0,0,43.06
72963,0.0027071178529755185,0.0004100683447241238,-9.820418023003835,2.3337222870478414e-05,-6.334389064844141e-05,-5.000833472245374e-06,0,0,0,43.06
72972,0.0027071178529755185,0.0004100683447241238,-9.810418023003836,2.3337222870478414e-05,-6.334389064844141e-05,-5.000833472245374e-06,0,0,0,43.06
72983,0.0027071178529755185,0.0004100683447241238,-9.810418023003836,2.3337222870478414e-05,-6.334389064844141e-05,-5.000833472245374e-06,0,0,0,43.06
72992,0.0027071178529755185,0.0004100683447241238,-9.810418023003836,2.3337222870478414e-05,-6.334389064844141e-05,-5.000833472245374e-06,0,0,0,43.12
73003,0.0027071178529755185,0.0004100683447241238,-9.800418023003836,2.3337222870478414e-05,-6.334389064844141e-05,-5.000833472245374e-06,0,0,0,42.93
73013,0.0027071178529755185,0.0004100683447241238,-9.800418023003836,2.3337222870478414e-05,-6.334389064844141e-05,-5.000833472245374e-06,0,0,0,42.93
73022,-0.0072928821470244765,0.0004100683447241238,-9.810418023003836,2.3337222870478414e-05,-6.334389064844141e-05,-5.000833472245374e-06,0,0,0,43.0
73033,0.0027071178529755185,0.0004100683447241238,-9.810418023003836,2.3337222870478414e-05,-6.334389064844141e-05,-5.000833472245374e-06,0,0,0,42.87
73042,0.0027071178529755185,0.0004100683447241238,-9.820418023003835,2.3337222870478414e-05,-6.334389064844141e-05,-5.000833472245374e-06,0,0,0,42.93
73053,0.0027071178529755185,0.0004100683447241238,-9.830418023003835,2.3337222870478414e-05,-6.334389064844141e-05,-5.000833472245374e-06,0,0,0,43.06
73063,0.0027071178529755185,0.0004100683447241238,-9.830418023003835,2.3337222870478414e-05,-6.334389064844141e-05,-5.000833472245374e-06,0,0,0,43.0
73072,-0.0072928821470244765,0.0004100683447241238,-9.820418023003835,2.3337222870478414e-05,-6.334389064844141e-05,-5.000833472245374e-06,0,0,0,42.87
73083,0.0027071178529755185,0.0004100683447241238,-9.810418023003836,2.3337222870478414e-05,-6.334389064844141e-05,-5.000833472245374e-06,0,0,0,42.93
73092,0.0027071178529755185,0.0004100683447241238,-9.810418023003836,2.3337222870478414e-05,-6.334389064844141e-05,-5.000833472245374e-06,0,0,0,42.93
73103,0.0027071178529755185,0.0004100683447241238,-9.810418023003836,2.3337222870478414e-05,-6.334389064844141e-05,-5.000833472245374e-06,0,0,0,42.87
73113,-0.0072928821470244765,0.0004100683447241238,-9.820418023003835,2.3337222870478414e-05,-6.334389064844141e-05,-5.000833472245374e-06,0,0,0,42.93
73122,0.0027071178529755185,0.0004100683447241238,-9.820418023003835,2.3337222870478414e-05,-6.334389064844141e-05,-5.000833472245374e-06,0,0,0,43.06
73133,0.0027071178529755185,0.010410068344724122,-9.810418023003836,2.3337222870478414e-05,-6.334389064844141e-05,-5.000833472245374e-06,0,0,0,42.87
73142,0.0027071178529755185,0.010410068344724122,-9.810418023003836,2.3337222870478414e-05,-6.334389064844141e-05,-5.000833472245374e-06,0,0,0,43.06
73153,0.0027071178529755185,0.0004100683447241238,-9.810418023003836,2.3337222870478414e-05,-6.334389064844141e-05,-5.000833472245374e-06,0,0,0,43.12
73163,-0.0072928821470244765,0.010410068344724122,-9.810418023003836,2.3337222870478414e-05,-6.334389064844141e-05,-5.000833472245374e-06,0,0,0,43.06
73172,-0.0072928821470244765,0.010410068344724122,-9.810418023003836,2.3337222870478414e-05,-6.334389064844141e-05,-5.000833472245374e-06,0,0,0,42.87
73183,0.0027071178529755185,0.0004100683447241238,-9.810418023003836,2.3337222870478414e-05,-6.334389064844141e-05,-5.000833472245374e-06,0,0,0,42.87
73192,0.0027071178529755185,-0.009589931655275876,-9.800418023003836,2.3337222870478414e-05,-6.334389064844141e-05,-5.000833472245374e-06,0,0,0,43.18
73203,0.0027071178529755185,0.0004100683447241238,-9.800418023003836,2.3337222870478414e-05,-6.334389064844141e-05,-5.000833472245374e-06,0,0,0,43.0
73213,0.0027071178529755185,0.010410068344724122,-9.810418023003836,2.3337222870478414e-05,-6.334389064844141e-05,-5.000833472245374e-06,0,0,0,43.0
73222,0.0027071178529755185,0.0004100683447241238,-9.820418023003835,2.3337222870478414e-05,-6.334389064844141e-05,-5.000833472245374e-06,0,0,0,42.68
73233,0.0027071178529755185,0.0004100683447241238,-9.820418023003835,2.3337222870478414e-05,-6.334389064844141e-05,-5.000833472245374e-06,0,0,0,43.0
73242,0.0027071178529755185,0.0004100683447241238,-9.820418023003835,2.3337222870478414e-05,-6.334389064844141e-05,-5.000833472245374e-06,0,0,0,43.06
73253,0.0027071178529755185,-0.009589931655275876,-9.820418023003835,2.3337222870478414e-05,-6.334389064844141e-05,-5.000833472245374e-06,0,0,0,42.93
73263,0.0027071178529755185,-0.009589931655275876,-9.810418023003836,2.3337222870478414e-05,-6.334389064844141e-05,-5.000833472245374e-06,0,0,0,43.18
73272,0.0027071178529755185,0.0004100683447241238,-9.810418023003836,2.3337222870478414e-05,-6.334389064844141e-05,-5.000833472245374e-06,0,0,0,43.06
73283,0.0027071178529755185,0.0004100683447241238,-9.810418023003836,2.3337222870478414e-05,-6.334389064844141e-05,-5.000833472245374e-06,0,0,0,42.87
73292,-0.0072928821470244765,0.0004100683447241238,-9.800418023003836,2.3337222870478414e-05,-6.334389064844141e-05,-5.000833472245374e-06,0,0,0,43.12
73303,-0.0072928821470244765,0.010410068344724122,-9.800418023003836,2.3337222870478414e-05,-6.334389064844141e-05,-5.000833472245374e-06,0,0,0,43.06
73313,0.0027071178529755185,0.0004100683447241238,-9.810418023003836,2.3337222870478414e-05,-6.334389064844141e-05,-5.000833472245374e-06,0,0,0,43.06
73322,0.0027071178529755185,0.0004100683447241238,-9.810418023003836,2.3337222870478414e-05,-6.334389064844141e-05,-5.000833472245374e-06,0,0,0,43.18
73333,0.0027071178529755185,0.0004100683447241238,-9.810418023003836,2.3337222870478414e-05,-6.334389064844141e-05,-5.000833472245374e-06,0,0,0,42.93
73342,0.0027071178529755185,0.010410068344724122,-9.800418023003836,2.3337222870478414e-05,-6.334389064844141e-05,-5.000833472245374e-06,0,0,0,43.06
73353,0.0027071178529755185,0.010410068344724122,-9.810418023003836,2.3337222870478414e-05,-6.334389064844141e-05,-5.000833472245374e-06,0,0,0,43.06
73363,0.0027071178529755185,0.0004100683447241238,-9.810418023003836,2.3337222870478414e-05,-6.334389064844141e-05,-5.000833472245374e-06,0,0,0,43.0
73372,0.0027071178529755185,0.0004100683447241238,-9.810418023003836,2.3337222870478414e-05,-6.334389064844141e-05,-5.000833472245374e-06,0,0,0,42.93
73383,0.0027071178529755185,0.0004100683447241238,-9.810418023003836,2.3337222870478414e-05,-6.334389064844141e-05,-5.000833472245374e-06,0,0,0,42.93
73392,0.0027071178529755185,0.0004100683447241238,-9.810418023003836,2.3337222870478414e-05,-6.334389064844141e-05,-5.000833472245374e-06,0,0,0,42.93
73403,0.0027071178529755185,0.0004100683447241238,-9.810418023003836,2.3337222870478414e-05,-6.334389064844141e-05,-5.000833472245374e-06,0,0,0,43.18
73413,0.0027071178529755185,0.0004100683447241238,-9.810418023003836,2.3337222870478414e-05,-6.334389064844141e-05,-5.000833472245374e-06,0,0,0,42.81
73422,0.0027071178529755185,0.0004100683447241238,-9.810418023003836,2.3337222870478414e-05,-6.334389064844141e-05,-5.000833472245374e-06,0,0,0,43.06
73433,0.0027071178529755185,0.0004100683447241238,-9.810418023003836,2.3337222870478414e-05,-6.334389064844141e-05,-5.000833472245374e-06,0,0,0,42.93
73442,-0.0072928821470244765,0.0004100683447241238,-9.810418023003836,2.3337222870478414e-05,-6.334389064844141e-05,-5.000833472245374e-06,0,0,0,43.0
73453,0.0027071178529755185,0.010410068344724122,-9.810418023003836,2.3337222870478414e-05,-6.334389064844141e-05,-5.000833472245374e-06,0,0,0,42.93
73463,0.0027071178529755185,0.0004100683447241238,-9.810418023003836,2.3337222870478414e-05,-6.334389064844141e-05,-5.000833472245374e-06,0,0,0,43.06
73472,0.0027071178529755185,0.0004100683447241238,-9.800418023003836,2.3337222870478414e-05,-6.334389064844141e-05,-5.000833472245374e-06,0,0,0,42.87
73483,-0.0072928821470244765,0.0004100683447241238,-9.800418023003836,2.3337222870478414e-05,-6.334389064844141e-05,-5.000833472245374e-06,0,0,0,42.87
73492,0.0027071178529755185,0.0004100683447241238,-9.810418023003836,2.3337222870478414e-05,-6.334389064844141e-05,-5.000833472245374e-06,0,0,0,43.06
73503,0.0027071178529755185,0.0004100683447241238,-9.820418023003835,2.3337222870478414e-05,-6.334389064844141e-05,-5.000833472245374e-06,0,0,0,42.87
73513,0.0027071178529755185,0.0004100683447241238,-9.810418023003836,2.3337222870478414e-05,-6.334389064844141e-05,-5.000833472245374e-06,0,0,0,43.06
73522,0.012707117852975527,0.0004100683447241238,-9.800418023003836,2.3337222870478414e-05,-6.334389064844141e-05,-5.000833472245374e-06,0,0,0,43.06
73533,0.012707117852975527,0.0004100683447241238,-9.810418023003836,2.3337222870478414e-05,-6.334389064844141e-05,-5.000833472245374e-06,0,0,0,43.12
73542,0.0027071178529755185,-0.009589931655275876,-9.810418023003836,2.3337222870478414e-05,-6.334389064844141e-05,-5.000833472245374e-06,0,0,0,43.06
73553,-0.0072928821470244765,0.0004100683447241238,-9.810418023003836,2.3337222870478414e-05,-6.334389064844141e-05,-5.000833472245374e-06,0,0,0,42.93
73563,0.0027071178529755185,0.0004100683447241238,-9.810418023003836,2.3337222870478414e-05,-6.334389064844141e-05,-5.000833472245374e-06,0,0,0,43.12
73572,0.0027071178529755185,0.0004100683447241238,-9.820418023003835,2.3337222870478414e-05,-6.334389064844141e-05,-5.000833472245374e-06,0,0,0,42.81
73583,0.0027071178529755185,0.0004100683447241238,-9.820418023003835,2.3337222870478414e-05,-6.334389064844141e-05,-5.000833472245374e-06,0,0,0,42.93
73592,0.0027071178529755185,-0.009589931655275876,-9.820418023003835,2.3337222870478414e-05,-6.334389064844141e-05,-5.000833472245374e-06,0,0,0,43.0
73603,-0.0072928821470244765,-0.009589931655275876,-9.820418023003835,2.3337222870478414e-05,-6.334389064844141e-05,-5.000833472245374e-06,0,0,0,42.93
73613,0.0027071178529755185,0.0004100683447241238,-9.820418023003835,2.3337222870478414e-05,-6.334389064844141e-05,-5.000833472245374e-06,0,0,0,42.93
73622,0.0027071178529755185,0.0004100683447241238,-9.820418023003835,2.3337222870478414e-05,-6.334389064844141e-05,-5.000833472245374e-06,0,0,0,42.93
73633,0.0027071178529755185,0.0004100683447241238,-9.810418023003836,2.3337222870478414e-05,-6.334389064844141e-05,-5.000833472245374e-06,0,0,0,43.06
73642,0.0027071178529755185,0.010410068344724122,-9.820418023003835,2.3337222870478414e-05,-6.334389064844141e-05,-5.000833472245374e-06,0,0,0,42.81
73653,0.0027071178529755185,0.0004100683447241238,-9.810418023003836,2.3337222870478414e-05,-6.334389064844141e-05,-5.000833472245374e-06,0,0,0,43.06
73663,0.0027071178529755185,0.0004100683447241238,-9.810418023003836,2.3337222870478414e-05,-6.334389064844141e-05,-5.000833472245374e-06,0,0,0,42.75
73672,0.0027071178529755185,0.0004100683447241238,-9.810418023003836,2.3337222870478414e-05,-6.334389064844141e-05,-5.000833472245374e-06,0,0,0,43.06
73683,0.0027071178529755185,0.010410068344724122,-9.810418023003836,2.3337222870478414e-05,-6.334389064844141e-05,-5.000833472245374e-06,0,0,0,42.68
73692,-0.0072928821470244765,0.0004100683447241238,-9.810418023003836,-0.019976662777129523,0.01993665610935156,-5.000833472245374e-06,0,0,0,42.93
73703,0.012707117852975527,0.010410068344724122,-9.800418023003836,-0.009976662777129521,-6.334389064844141e-05,-5.000833472245374e-06,0,0,0,42.75
73713,0.0027071178529755185,0.0004100683447241238,-9.800418023003836,0.01002333722287048,-0.02006334389064844,-5.000833472245374e-06,0,0,0,43.0
73722,-0.0072928821470244765,0.0004100683447241238,-9.800418023003836,0.030023337222870476,-0.03006334389064844,-5.000833472245374e-06,0,0,0,42.87
73733,0.0027071178529755185,0.0004100683447241238,-9.800418023003836,0.07002333722287049,-0.040063343890648445,-5.000833472245374e-06,0,0,0,42.93
73742,-0.0072928821470244765,0.0004100683447241238,-9.810418023003836,0.11002333722287048,-0.06006334389064844,-5.000833472245374e-06,0,0,0,42.87
73753,-0.0072928821470244765,0.0004100683447241238,-9.810418023003836,0.12002333722287048,-0.03006334389064844,-5.000833472245374e-06,0,0,0,43.06
73763,-0.0072928821470244765,0.0004100683447241238,-9.810418023003836,0.12002333722287048,-0.010063343890648441,-5.000833472245374e-06,0,0,0,42.93
73772,-0.0072928821470244765,-0.009589931655275876,-9.810418023003836,0.10002333722287049,-0.010063343890648441,-5.000833472245374e-06,0,0,0,43.06
73783,-0.0072928821470244765,-0.019589931655275877,-9.830418023003835,0.030023337222870476,-6.334389064844141e-05,-5.000833472245374e-06,0,0,0,43.06
73792,-0.0072928821470244765,-0.019589931655275877,-9.830418023003835,-0.07997666277712952,0.029936656109351558,-5.000833472245374e-06,0,0,0,42.93
73803,0.0027071178529755185,-0.009589931655275876,-9.800418023003836,-0.11997666277712951,0.04993665610935156,-5.000833472245374e-06,0,0,0,43.12
73813,0.0027071178529755185,-0.019589931655275877,-9.800418023003836,-0.10997666277712952,0.04993665610935156,-5.000833472245374e-06,0,0,0,42.93
73822,0.012707117852975527,0.0004100683447241238,-9.800418023003836,-0.12997666277712952,0.05993665610935155,-5.000833472245374e-06,0,0,0,43.06
73833,0.0027071178529755185,0.0004100683447241238,-9.800418023003836,-0.05997666277712952,0.029936656109351558,-5.000833472245374e-06,0,0,0,42.93
73842,-0.0072928821470244765,0.010410068344724122,-9.800418023003836,-0.02997666277712952,0.01993665610935156,-5.000833472245374e-06,0,0,0,43.06
73853,-0.0072928821470244765,0.010410068344724122,-9.810418023003836,2.3337222870478414e-05,0.029936656109351558,-5.000833472245374e-06,0,0,0,42.93
73863,0.0027071178529755185,0.0004100683447241238,-9.800418023003836,2.3337222870478414e-05,0.04993665610935156,-5.000833472245374e-06,0,0,0,43.06
73872,0.0027071178529755185,-0.009589931655275876,-9.800418023003836,-0.019976662777129523,0.06993665610935157,-5.000833472245374e-06,0,0,0,43.06
73883,0.0027071178529755185,0.0004100683447241238,-9.800418023003836,-0.039976662777129524,0.08993665610935156,-5.000833472245374e-06,0,0,0,42.93
73893,0.012707117852975527,0.0004100683447241238,-9.800418023003836,-0.019976662777129523,0.06993665610935157,-0.010005000833472246,0,0,0,42.93
73903,0.0027071178529755185,0.010410068344724122,-9.800418023003836,2.3337222870478414e-05,0.029936656109351558,-0.020005000833472245,0,0,0,42.87
73913,-0.0072928821470244765,0.0004100683447241238,-9.810418023003836,-0.009976662777129521,0.05993665610935155,-0.020005000833472245,0,0,0,43.06
73922,0.0027071178529755185,0.0004100683447241238,-9.800418023003836,-0.019976662777129523,0.10993665610935156,-0.010005000833472246,0,0,0,43.06
73933,0.0027071178529755185,0.010410068344724122,-9.810418023003836,0.01002333722287048,0.10993665610935156,-0.020005000833472245,0,0,0,43.06
73942,0.0027071178529755185,0.0004100683447241238,-9.810418023003836,0.04002333722287048,0.07993665610935156,-0.030005000833472243,0,0,0,42.87
73953,0.0027071178529755185,0.0004100683447241238,-9.820418023003835,0.05002333722287048,0.05993665610935155,-0.04000500083347225,0,0,0,42.93
73963,0.0027071178529755185,-0.009589931655275876,-9.820418023003835,0.060023337222870475,0.08993665610935156,-0.08000500083347224,0,0,0,42.87
73972,0.022707117852975522,-0.009589931655275876,-9.820418023003835,0.060023337222870475,0.10993665610935156,-0.11000500083347224,0,0,0,42.93
73983,0.022707117852975522,0.0004100683447241238,-9.810418023003836,0.060023337222870475,0.07993665610935156,-0.11000500083347224,0,0,0,43.0
73992,0.012707117852975527,0.010410068344724122,-9.810418023003836,0.09002333722287048,0.04993665610935156,-0.07000500083347225,0,0,0,42.93
74003,0.022707117852975522,0.010410068344724122,-9.810418023003836,0.11002333722287048,0.01993665610935156,-0.04000500083347225,0,0,0,43.06
74013,0.03270711785297552,0.010410068344724122,-9.800418023003836,0.1400233372228705,-0.03006334389064844,-0.010005000833472246,0,0,0,42.93
74022,0.022707117852975522,0.0004100683447241238,-9.810418023003836,0.1600233372228705,-0.06006334389064844,-0.010005000833472246,0,0,0,43.06
74033,0.012707117852975527,-0.009589931655275876,-9.810418023003836,0.1700233372228705,-0.06006334389064844,-0.020005000833472245,0,0,0,43.0
74042,0.012707117852975527,-0.009589931655275876,-9.810418023003836,0.1600233372228705,-0.06006334389064844,-0.010005000833472246,0,0,0,43.0
74053,0.0027071178529755185,-0.009589931655275876,-9.820418023003835,0.1600233372228705,-0.05006334389064845,-0.010005000833472246,0,0,0,43.06
74063,0.0027071178529755185,-0.019589931655275877,-9.820418023003835,0.1400233372228705,-0.03006334389064844,-0.010005000833472246,0,0,0,43.06
74072,0.0027071178529755185,-0.019589931655275877,-9.810418023003836,0.10002333722287049,-6.334389064844141e-05,-0.010005000833472246,0,0,0,43.06
74083,0.012707117852975527,-0.019589931655275877,-9.810418023003836,0.07002333722287049,-6.334389064844141e-05,-5.000833472245374e-06,0,0,0,42.87
74092,0.012707117852975527,-0.009589931655275876,-9.800418023003836,0.09002333722287048,-6.334389064844141e-05,-5.000833472245374e-06,0,0,0,43.12
74103,0.0027071178529755185,-0.019589931655275877,-9.810418023003836,0.11002333722287048,-0.010063343890648441,-5.000833472245374e-06,0,0,0,43.12
74113,0.0027071178529755185,-0.019589931655275877,-9.820418023003835,0.09002333722287048,-6.334389064844141e-05,-0.010005000833472246,0,0,0,43.06
74122,0.012707117852975527,-0.019589931655275877,-9.830418023003835,0.05002333722287048,-6.334389064844141e-05,-0.010005000833472246,0,0,0,42.87
74133,0.012707117852975527,-0.019589931655275877,-9.830418023003835,0.020023337222870478,-6.334389064844141e-05,-5.000833472245374e-06,0,0,0,42.87
74142,0.012707117852975527,-0.019589931655275877,-9.820418023003835,0.020023337222870478,-6.334389064844141e-05,-5.000833472245374e-06,0,0,0,42.93
74153,0.0027071178529755185,-0.019589931655275877,-9.810418023003836,0.020023337222870478,-0.010063343890648441,-5.000833472245374e-06,0,0,0,43.06
74163,0.0027071178529755185,-0.019589931655275877,-9.810418023003836,0.030023337222870476,-0.040063343890648445,-5.000833472245374e-06,0,0,0,42.93
74172,0.0027071178529755185,-0.019589931655275877,-9.820418023003835,0.04002333722287048,-0.05006334389064845,-5.000833472245374e-06,0,0,0,43.12
74183,0.0027071178529755185,-0.019589931655275877,-9.820418023003835,0.030023337222870476,-0.06006334389064844,-5.000833472245374e-06,0,0,0,43.06
74192,0.0027071178529755185,-0.019589931655275877,-9.810418023003836,2.3337222870478414e-05,-0.040063343890648445,-5.000833472245374e-06,0,0,0,42.75
74203,0.0027071178529755185,-0.019589931655275877,-9.810418023003836,-0.009976662777129521,-0.02006334389064844,-5.000833472245374e-06,0,0,0,43.06
74213,0.0027071178529755185,-0.019589931655275877,-9.810418023003836,-0.019976662777129523,-0.010063343890648441,-5.000833472245374e-06,0,0,0,43.06
74222,0.0027071178529755185,-0.019589931655275877,-9.810418023003836,-0.019976662777129523,-0.010063343890648441,-5.000833472245374e-06,0,0,0,43.0
74233,0.0027071178529755185,-0.019589931655275877,-9.810418023003836,-0.019976662777129523,-0.010063343890648441,-5.000833472245374e-06,0,0,0,43.06
74242,0.012707117852975527,-0.019589931655275877,-9.820418023003835,-0.02997666277712952,-0.02006334389064844,-5.000833472245374e-06,0,0,0,43.0
74253,0.012707117852975527,-0.019589931655275877,-9.820418023003835,-0.02997666277712952,-0.06006334389064844,0.009994999166527754,0,0,0,42.93
74263,0.012707117852975527,-0.019589931655275877,-9.810418023003836,-0.019976662777129523,-0.07006334389064844,0.019994999166527756,0,0,0,43.06
74272,0.012707117852975527,-0.019589931655275877,-9.810418023003836,-0.019976662777129523,-0.07006334389064844,0.009994999166527754,0,0,0,42.68
74283,0.0027071178529755185,-0.019589931655275877,-9.810418023003836,-0.039976662777129524,-0.06006334389064844,0.009994999166527754,0,0,0,43.06
74292,-0.01729288214702447,-0.019589931655275877,-9.800418023003836,-0.06997666277712952,-0.03006334389064844,0.009994999166527754,0,0,0,42.93
74303,-0.01729288214702447,-0.019589931655275877,-9.800418023003836,-0.07997666277712952,-6.334389064844141e-05,0.009994999166527754,0,0,0,43.0
74313,-0.0072928821470244765,-0.019589931655275877,-9.810418023003836,-0.07997666277712952,0.01993665610935156,-5.000833472245374e-06,0,0,0,42.81
74322,-0.0072928821470244765,-0.019589931655275877,-9.810418023003836,-0.07997666277712952,0.039936656109351557,-5.000833472245374e-06,0,0,0,43.31
74333,0.0027071178529755185,-0.009589931655275876,-9.810418023003836,-0.07997666277712952,0.039936656109351557,-5.000833472245374e-06,0,0,0,42.87
74342,0.012707117852975527,-0.009589931655275876,-9.810418023003836,-0.05997666277712952,0.00993665610935156,0.009994999166527754,0,0,0,42.93
74353,0.012707117852975527,-0.019589931655275877,-9.810418023003836,-0.039976662777129524,-6.334389064844141e-05,0.009994999166527754,0,0,0,43.06
74363,0.0027071178529755185,-0.019589931655275877,-9.820418023003835,-0.019976662777129523,-0.02006334389064844,0.009994999166527754,0,0,0,42.93
74372,-0.0072928821470244765,-0.019589931655275877,-9.810418023003836,2.3337222870478414e-05,-0.010063343890648441,0.019994999166527756,0,0,0,42.87
74383,0.0027071178529755185,-0.019589931655275877,-9.810418023003836,0.030023337222870476,-6.334389064844141e-05,0.009994999166527754,0,0,0,42.93
74392,0.0027071178529755185,-0.019589931655275877,-9.820418023003835,0.04002333722287048,-6.334389064844141e-05,-5.000833472245374e-06,0,0,0,43.06
74403,0.0027071178529755185,-0.019589931655275877,-9.810418023003836,0.020023337222870478,-6.334389064844141e-05,-5.000833472245374e-06,0,0,0,42.93
74413,0.0027071178529755185,-0.019589931655275877,-9.810418023003836,0.01002333722287048,-0.010063343890648441,-5.000833472245374e-06,0,0,0,42.93
74422,0.0027071178529755185,-0.019589931655275877,-9.810418023003836,2.3337222870478414e-05,-6.334389064844141e-05,-5.000833472245374e-06,0,0,0,43.12
74433,-0.0072928821470244765,-0.019589931655275877,-9.810418023003836,-0.039976662777129524,-6.334389064844141e-05,-5.000833472245374e-06,0,0,0,42.93
74442,-0.0072928821470244765,-0.019589931655275877,-9.810418023003836,-0.09997666277712952,0.00993665610935156,-5.000833472245374e-06,0,0,0,42.93
74453,0.0027071178529755185,-0.009589931655275876,-9.810418023003836,-0.11997666277712951,0.01993665610935156,0.009994999166527754,0,0,0,43.06
74463,0.012707117852975527,-0.009589931655275876,-9.810418023003836,-0.11997666277712951,0.029936656109351558,0.009994999166527754,0,0,0,43.06
74472,0.022707117852975522,0.0004100683447241238,-9.800418023003836,-0.05997666277712952,0.00993665610935156,0.009994999166527754,0,0,0,43.06
74483,0.012707117852975527,0.0004100683447241238,-9.790418023003836,0.030023337222870476,-6.334389064844141e-05,-5.000833472245374e-06,0,0,0,42.87
74492,0.0027071178529755185,-0.009589931655275876,-9.810418023003836,0.11002333722287048,-6.334389064844141e-05,-5.000833472245374e-06,0,0,0,43.0
74503,-0.0072928821470244765,-0.009589931655275876,-9.820418023003835,0.12002333722287048,-6.334389064844141e-05,-5.000833472245374e-06,0,0,0,43.06
74513,-0.0072928821470244765,-0.019589931655275877,-9.820418023003835,0.10002333722287049,0.00993665610935156,0.009994999166527754,0,0,0,43.06
74522,-0.0072928821470244765,-0.019589931655275877,-9.820418023003835,0.05002333722287048,0.01993665610935156,0.009994999166527754,0,0,0,43.12
74533,0.0027071178529755185,-0.019589931655275877,-9.810418023003836,2.3337222870478414e-05,0.039936656109351557,0.029994999166527755,0,0,0,43.06
74542,0.012707117852975527,-0.019589931655275877,-9.800418023003836,2.3337222870478414e-05,0.029936656109351558,0.029994999166527755,0,0,0,42.87
74553,0.012707117852975527,-0.009589931655275876,-9.800418023003836,0.020023337222870478,0.01993665610935156,0.019994999166527756,0,0,0,42.93
74563,0.022707117852975522,-0.009589931655275876,-9.810418023003836,0.05002333722287048,-6.334389064844141e-05,0.009994999166527754,0,0,0,42.81
74572,0.012707117852975527,-0.019589931655275877,-9.810418023003836,0.07002333722287049,-6.334389064844141e-05,0.009994999166527754,0,0,0,43.12
74583,0.0027071178529755185,-0.019589931655275877,-9.820418023003835,0.07002333722287049,-6.334389064844141e-05,0.019994999166527756,0,0,0,42.81
74592,-0.0072928821470244765,-0.019589931655275877,-9.820418023003835,0.060023337222870475,-6.334389064844141e-05,0.029994999166527755,0,0,0,42.75
74603,-0.0072928821470244765,-0.019589931655275877,-9.820418023003835,0.04002333722287048,0.01993665610935156,0.03999499916652775,0,0,0,42.93
74613,0.0027071178529755185,-0.019589931655275877,-9.800418023003836,0.030023337222870476,0.01993665610935156,0.06999499916652777,0,0,0,43.06
74622,0.0027071178529755185,-0.019589931655275877,-9.810418023003836,0.020023337222870478,0.00993665610935156,0.07999499916652776,0,0,0,42.75
74633,0.0027071178529755185,-0.019589931655275877,-9.810418023003836,0.01002333722287048,0.00993665610935156,0.06999499916652777,0,0,0,43.18
74642,0.0027071178529755185,-0.019589931655275877,-9.810418023003836,0.01002333722287048,-6.334389064844141e-05,0.05999499916652775,0,0,0,42.81
74653,0.012707117852975527,-0.019589931655275877,-9.810418023003836,0.01002333722287048,-6.334389064844141e-05,0.05999499916652775,0,0,0,42.93
74663,0.022707117852975522,-0.009589931655275876,-9.810418023003836,2.3337222870478414e-05,-0.010063343890648441,0.09999499916652776,0,0,0,42.75
74672,0.022707117852975522,0.0004100683447241238,-9.810418023003836,2.3337222870478414e-05,-0.02006334389064844,0.24999499916652776,0,0,0,42.87
74683,0.07270711785297553,0.07041006834472412,-9.820418023003835,2.3337222870478414e-05,-0.010063343890648441,0.5799949991665277,0,0,0,42.93
74692,0.30270711785297555,0.3104100683447241,-9.810418023003836,2.3337222870478414e-05,0.01993665610935156,2.7299949991665278,0,0,0,43.12
74703,0.29270711785297554,0.3404100683447241,-9.800418023003836,2.3337222870478414e-05,0.029936656109351558,6.349994999166527,0,0,0,43.06
74713,-0.037292882147024475,-0.029589931655275875,-9.800418023003836,2.3337222870478414e-05,0.00993665610935156,8.129994999166529,0,0,0,43.06
74722,-0.2872928821470245,-0.3595899316552759,-9.800418023003836,-0.009976662777129521,-0.010063343890648441,6.1599949991665275,0,0,0,43.06
74733,-0.26729288214702446,-0.3495899316552759,-9.810418023003836,-0.009976662777129521,-0.03006334389064844,2.739994999166528,0,0,0,43.06
74742,-0.09729288214702447,-0.14958993165527587,-9.820418023003835,-0.019976662777129523,-0.02006334389064844,0.38999499916652774,0,0,0,43.06
74753,-0.0072928821470244765,-0.029589931655275875,-9.810418023003836,-0.019976662777129523,-6.334389064844141e-05,-0.19000500083347224,0,0,0,42.93
74763,0.07270711785297553,0.08041006834472413,-9.810418023003836,-0.019976662777129523,0.00993665610935156,-0.020005000833472245,0,0,0,42.93
74772,0.3927071178529755,0.4704100683447241,-9.810418023003836,2.3337222870478414e-05,0.039936656109351557,3.139994999166528,0,0,0,43.18
74783,0.22270711785297553,0.24041006834472414,-9.800418023003836,0.04002333722287048,0.01993665610935156,7.129994999166527,0,0,0,42.93
74792,-0.2372928821470245,-0.3495899316552759,-9.800418023003836,0.04002333722287048,-0.010063343890648441,6.669994999166527,0,0,0,42.93
74803,-0.2972928821470245,-0.3995899316552759,-9.820418023003835,0.01002333722287048,-6.334389064844141e-05,2.789994999166528,0,0,0,42.87
74813,-0.10729288214702448,-0.15958993165527588,-9.830418023003835,-0.019976662777129523,0.00993665610935156,0.33999499916652776,0,0,0,42.87
74822,0.0027071178529755185,-0.019589931655275877,-9.820418023003835,-0.05997666277712952,0.01993665610935156,-0.2800050008334723,0,0,0,43.0
74833,0.022707117852975522,0.010410068344724122,-9.810418023003836,-0.06997666277712952,0.029936656109351558,-0.16000500083347224,0,0,0,42.93
74842,0.012707117852975527,0.0004100683447241238,-9.800418023003836,-0.05997666277712952,0.029936656109351558,-5.000833472245374e-06,0,0,0,42.93
74853,0.0027071178529755185,-0.019589931655275877,-9.800418023003836,-0.039976662777129524,0.01993665610935156,0.05999499916652775,0,0,0,43.18
74863,0.0027071178529755185,-0.019589931655275877,-9.800418023003836,-0.019976662777129523,-6.334389064844141e-05,0.05999499916652775,0,0,0,42.93
74872,0.0027071178529755185,-0.019589931655275877,-9.810418023003836,-0.009976662777129521,-0.010063343890648441,0.03999499916652775,0,0,0,43.0
74883,0.012707117852975527,-0.019589931655275877,-9.820418023003835,2.3337222870478414e-05,-0.02006334389064844,0.029994999166527755,0,0,0,43.06
74892,0.08270711785297553,0.17041006834472414,-9.820418023003835,2.3337222870478414e-05,-6.334389064844141e-05,0.4799949991665277,0,0,0,43.06
74903,0.34270711785297553,0.6304100683447241,-9.810418023003836,2.3337222870478414e-05,-6.334389064844141e-05,5.679994999166527,0,0,0,43.06
74913,0.24270711785297555,0.4204100683447241,-9.820418023003835,0.01002333722287048,-6.334389064844141e-05,12.479994999166529,0,0,0,43.06
74922,-0.08729288214702448,-0.13958993165527586,-9.810418023003836,-0.009976662777129521,-6.334389064844141e-05,13.769994999166528,0,0,0,42.93
74933,-0.21729288214702447,-0.36958993165527587,-9.810418023003836,-0.039976662777129524,-6.334389064844141e-05,10.629994999166529,0,0,0,42.81
74942,-0.09729288214702447,-0.19958993165527586,-9.800418023003836,-0.02997666277712952,-0.010063343890648441,7.679994999166527,0,0,0,43.06
74953,0.012707117852975527,0.0004100683447241238,-9.800418023003836,-0.009976662777129521,-0.02006334389064844,7.069994999166528,0,0,0,43.06
74963,0.06270711785297552,0.07041006834472412,-9.810418023003836,0.01002333722287048,-0.03006334389064844,7.929994999166527,0,0,0,42.93
74972,0.022707117852975522,-0.009589931655275876,-9.810418023003836,0.04002333722287048,-0.02006334389064844,8.449994999166528,0,0,0,43.06
74983,-0.04729288214702448,-0.13958993165527586,-9.810418023003836,0.07002333722287049,-0.03006334389064844,7.539994999166527,0,0,0,43.06
74992,-0.09729288214702447,-0.24958993165527588,-9.810418023003836,0.08002333722287049,-0.02006334389064844,5.189994999166528,0,0,0,42.75
75003,-0.04729288214702448,-0.10958993165527588,-9.810418023003836,0.07002333722287049,-0.02006334389064844,3.2599949991665276,0,0,0,42.81
75013,0.11270711785297553,0.19041006834472413,-9.810418023003836,0.07002333722287049,-0.02006334389064844,3.579994999166528,0,0,0,43.06
75022,0.16270711785297554,0.2904100683447241,-9.810418023003836,0.05002333722287048,-0.02006334389064844,5.859994999166528,0,0,0,43.06
75033,0.08270711785297553,0.13041006834472413,-9.820418023003835,0.020023337222870478,-0.03006334389064844,7.709994999166527,0,0,0,43.06
75042,0.012707117852975527,-0.04958993165527588,-9.810418023003836,2.3337222870478414e-05,-0.040063343890648445,8.229994999166529,0,0,0,42.93
75053,-0.0072928821470244765,-0.11958993165527589,-9.810418023003836,-0.02997666277712952,-0.05006334389064845,7.9499949991665275,0,0,0,42.93
75063,0.0027071178529755185,-0.03958993165527588,-9.820418023003835,-0.05997666277712952,-0.05006334389064845,7.719994999166527,0,0,0,43.06
75072,-0.02729288214702448,-0.029589931655275875,-9.810418023003836,-0.09997666277712952,-0.02006334389064844,7.989994999166528,0,0,0,42.93
75083,-0.10729288214702448,-0.12958993165527588,-9.810418023003836,-0.12997666277712952,-6.334389064844141e-05,7.729994999166528,0,0,0,43.06
75092,-0.14729288214702446,-0.19958993165527586,-9.810418023003836,-0.13997666277712953,-6.334389064844141e-05,6.579994999166527,0,0,0,42.87
75103,-0.12729288214702447,-0.15958993165527588,-9.810418023003836,-0.12997666277712952,0.00993665610935156,5.339994999166527,0,0,0,42.93
75113,-0.08729288214702448,-0.04958993165527588,-9.810418023003836,-0.11997666277712951,0.00993665610935156,4.9099949991665275,0,0,0,42.93
75122,-0.08729288214702448,-0.019589931655275877,-9.800418023003836,-0.09997666277712952,-6.334389064844141e-05,5.239994999166528,0,0,0,42.93
75133,-0.08729288214702448,-0.059589931655275874,-9.810418023003836,-0.09997666277712952,-6.334389064844141e-05,5.349994999166527,0,0,0,43.18
75142,-0.05729288214702448,0.0004100683447241238,-9.810418023003836,-0.10997666277712952,-0.02006334389064844,5.509994999166527,0,0,0,43.06
75153,0.012707117852975527,0.10041006834472412,-9.810418023003836,-0.07997666277712952,-0.06006334389064844,6.579994999166527,0,0,0,42.93
75163,0.10270711785297552,0.13041006834472413,-9.810418023003836,-0.049976662777129525,-0.07006334389064844,8.409994999166528,0,0,0,43.06
75172,0.15270711785297553,0.04041006834472412,-9.820418023003835,-0.039976662777129524,-0.08006334389064844,9.929994999166528,0,0,0,42.93
75183,0.09270711785297552,-0.09958993165527588,-9.820418023003835,-0.049976662777129525,-0.07006334389064844,10.179994999166528,0,0,0,42.93
75192,0.0027071178529755185,-0.19958993165527586,-9.810418023003836,-0.049976662777129525,-0.05006334389064845,8.759994999166528,0,0,0,43.06
75203,-0.037292882147024475,-0.14958993165527587,-9.810418023003836,-0.049976662777129525,-0.040063343890648445,6.689994999166528,0,0,0,42.93
75213,-0.01729288214702447,0.030410068344724126,-9.810418023003836,-0.049976662777129525,-0.03006334389064844,6.149994999166528,0,0,0,43.06
75222,0.03270711785297552,0.21041006834472414,-9.800418023003836,-0.02997666277712952,-0.03006334389064844,7.969994999166527,0,0,0,43.12
75233,0.08270711785297553,0.3004100683447241,-9.810418023003836,-0.019976662777129523,-0.03006334389064844,10.949994999166528,0,0,0,42.75
75242,0.07270711785297553,0.26041006834472413,-9.810418023003836,-0.019976662777129523,-0.040063343890648445,13.809994999166529,0,0,0,43.0
75253,-0.01729288214702447,0.04041006834472412,-9.820418023003835,-0.039976662777129524,-0.03006334389064844,14.719994999166529,0,0,0,42.93
75263,-0.10729288214702448,-0.09958993165527588,-9.830418023003835,-0.06997666277712952,-0.02006334389064844,13.809994999166529,0,0,0,42.87
75272,-0.1772928821470245,-0.14958993165527587,-9.820418023003835,-0.08997666277712951,-0.010063343890648441,12.289994999166527,0,0,0,42.93
75283,-0.2372928821470245,-0.15958993165527588,-9.820418023003835,-0.09997666277712952,-6.334389064844141e-05,10.859994999166528,0,0,0,43.0
75292,-0.2472928821470245,-0.18958993165527588,-9.820418023003835,-0.09997666277712952,-6.334389064844141e-05,9.479994999166529,0,0,0,43.06
75303,-0.21729288214702447,-0.22958993165527586,-9.810418023003836,-0.08997666277712951,0.029936656109351558,7.9499949991665275,0,0,0,42.87
75313,-0.14729288214702446,-0.11958993165527589,-9.810418023003836,-0.05997666277712952,0.039936656109351557,6.239994999166528,0,0,0,42.81
75322,-0.13729288214702448,0.030410068344724126,-9.810418023003836,-0.019976662777129523,0.01993665610935156,5.9099949991665275,0,0,0,43.18
75333,-0.07729288214702448,0.04041006834472412,-9.820418023003835,2.3337222870478414e-05,-6.334389064844141e-05,6.389994999166527,0,0,0,42.93
75342,-0.037292882147024475,0.05041006834472413,-9.810418023003836,0.020023337222870478,-0.010063343890648441,6.829994999166527,0,0,0,42.93
75353,-0.037292882147024475,0.10041006834472412,-9.810418023003836,0.030023337222870476,-0.040063343890648445,7.779994999166528,0,0,0,42.81
75363,0.052707117852975535,0.010410068344724122,-9.810418023003836,0.01002333722287048,-0.05006334389064845,8.859994999166528,0,0,0,42.93
75372,0.07270711785297553,-0.029589931655275875,-9.810418023003836,2.3337222870478414e-05,-0.040063343890648445,9.099994999166528,0,0,0,43.06
75383,0.052707117852975535,-0.019589931655275877,-9.800418023003836,2.3337222870478414e-05,-0.02006334389064844,8.979994999166529,0,0,0,43.06
75393,0.042707117852975526,-0.03958993165527588,-9.810418023003836,2.3337222870478414e-05,-0.02006334389064844,8.859994999166528,0,0,0,42.93
75403,0.0027071178529755185,-0.08958993165527589,-9.820418023003835,2.3337222870478414e-05,-0.010063343890648441,8.399994999166529,0,0,0,43.06
75413,-0.02729288214702448,-0.08958993165527589,-9.830418023003835,-0.009976662777129521,-0.010063343890648441,7.789994999166527,0,0,0,43.06
75422,-0.07729288214702448,-0.029589931655275875,-9.820418023003835,-0.019976662777129523,-0.010063343890648441,7.689994999166528,0,0,0,43.12
75433,-0.037292882147024475,-0.019589931655275877,-9.810418023003836,-0.02997666277712952,-0.02006334389064844,7.9099949991665275,0,0,0,42.93
75442,-0.01729288214702447,-0.029589931655275875,-9.810418023003836,-0.039976662777129524,-0.03006334389064844,8.119994999166527,0,0,0,42.81
75453,-0.02729288214702448,0.020410068344724124,-9.820418023003835,-0.02997666277712952,-0.03006334389064844,8.549994999166529,0,0,0,42.93
75463,0.012707117852975527,0.04041006834472412,-9.820418023003835,-0.009976662777129521,-0.040063343890648445,9.369994999166527,0,0,0,43.06
75472,0.022707117852975522,0.0004100683447241238,-9.810418023003836,-0.019976662777129523,-0.040063343890648445,10.069994999166529,0,0,0,43.06
75483,0.052707117852975535,-0.029589931655275875,-9.800418023003836,-0.019976662777129523,-0.040063343890648445,10.529994999166528,0,0,0,43.06
75492,0.06270711785297552,-0.07958993165527588,-9.800418023003836,-0.019976662777129523,-0.040063343890648445,10.869994999166527,0,0,0,42.81
75503,0.03270711785297552,-0.09958993165527588,-9.810418023003836,-0.019976662777129523,-0.03006334389064844,10.609994999166528,0,0,0,43.18
75513,0.012707117852975527,-0.06958993165527588,-9.820418023003835,-0.009976662777129521,-0.02006334389064844,10.229994999166529,0,0,0,42.87
75522,0.012707117852975527,-0.06958993165527588,-9.820418023003835,-0.009976662777129521,-0.010063343890648441,9.939994999166528,0,0,0,42.93
75533,0.03270711785297552,-0.07958993165527588,-9.810418023003836,-0.019976662777129523,-0.010063343890648441,9.519994999166528,0,0,0,42.93
75542,0.042707117852975526,-0.07958993165527588,-9.810418023003836,-0.019976662777129523,-0.010063343890648441,9.029994999166528,0,0,0,42.93
75553,0.042707117852975526,-0.08958993165527589,-9.810418023003836,-0.039976662777129524,-0.02006334389064844,8.709994999166529,0,0,0,42.87
75563,0.03270711785297552,-0.03958993165527588,-9.800418023003836,-0.05997666277712952,-0.03006334389064844,8.969994999166529,0,0,0,43.0
75572,0.052707117852975535,-0.009589931655275876,-9.810418023003836,-0.05997666277712952,-0.03006334389064844,9.809994999166529,0,0,0,43.06
75583,0.10270711785297552,-0.059589931655275874,-9.810418023003836,-0.06997666277712952,-0.040063343890648445,10.639994999166529,0,0,0,43.06
75592,0.07270711785297553,-0.17958993165527587,-9.810418023003836,-0.08997666277712951,-0.040063343890648445,10.599994999166528,0,0,0,43.06
75603,0.022707117852975522,-0.22958993165527586,-9.820418023003835,-0.07997666277712952,-0.040063343890648445,9.009994999166528,0,0,0,43.12
75613,-0.01729288214702447,-0.14958993165527587,-9.820418023003835,-0.06997666277712952,-0.03006334389064844,7.149994999166528,0,0,0,42.93
75622,-0.01729288214702447,-0.03958993165527588,-9.820418023003835,-0.05997666277712952,-0.03006334389064844,6.379994999166527,0,0,0,43.06
75633,0.012707117852975527,0.030410068344724126,-9.810418023003836,-0.05997666277712952,-0.040063343890648445,6.959994999166527,0,0,0,43.12
75642,0.052707117852975535,-0.019589931655275877,-9.810418023003836,-0.06997666277712952,-0.05006334389064845,8.169994999166528,0,0,0,42.81
75653,0.06270711785297552,-0.059589931655275874,-9.820418023003835,-0.06997666277712952,-0.040063343890648445,8.839994999166528,0,0,0,43.06
75663,0.042707117852975526,-0.09958993165527588,-9.810418023003836,-0.06997666277712952,-0.05006334389064845,9.099994999166528,0,0,0,43.06
75672,0.022707117852975522,-0.10958993165527588,-9.820418023003835,-0.05997666277712952,-0.05006334389064845,8.809994999166529,0,0,0,42.87
75683,-0.01729288214702447,-0.059589931655275874,-9.820418023003835,-0.05997666277712952,-0.040063343890648445,8.429994999166528,0,0,0,43.06
75692,-0.05729288214702448,-0.009589931655275876,-9.820418023003835,-0.05997666277712952,-0.02006334389064844,8.259994999166528,0,0,0,43.06
75703,-0.08729288214702448,-0.009589931655275876,-9.810418023003836,-0.05997666277712952,-0.010063343890648441,8.219994999166529,0,0,0,43.06
75713,-0.09729288214702447,-0.029589931655275875,-9.830418023003835,-0.05997666277712952,-0.010063343890648441,7.709994999166527,0,0,0,42.81
75722,-0.07729288214702448,-0.019589931655275877,-9.820418023003835,-0.049976662777129525,-0.02006334389064844,7.069994999166528,0,0,0,42.81
75733,-0.037292882147024475,-0.03958993165527588,-9.820418023003835,-0.049976662777129525,-0.02006334389064844,6.589994999166527,0,0,0,43.0
75742,-0.037292882147024475,-0.019589931655275877,-9.810418023003836,-0.049976662777129525,-0.03006334389064844,6.649994999166528,0,0,0,43.06
75753,-0.01729288214702447,-0.009589931655275876,-9.810418023003836,-0.049976662777129525,-0.03006334389064844,7.359994999166528,0,0,0,43.0
75763,0.03270711785297552,0.020410068344724124,-9.810418023003836,-0.019976662777129523,-0.03006334389064844,8.679994999166528,0,0,0,42.93
75772,0.09270711785297552,0.04041006834472412,-9.810418023003836,-0.009976662777129521,-0.03006334389064844,10.419994999166528,0,0,0,43.0
75783,0.11270711785297553,0.04041006834472412,-9.820418023003835,-0.02997666277712952,-0.03006334389064844,12.439994999166528,0,0,0,43.0
75792,0.03270711785297552,-0.019589931655275877,-9.820418023003835,-0.05997666277712952,-0.040063343890648445,13.739994999166528,0,0,0,43.12
75803,-0.01729288214702447,-0.08958993165527589,-9.820418023003835,-0.08997666277712951,-0.03006334389064844,13.789994999166527,0,0,0,43.06
75813,-0.04729288214702448,-0.11958993165527589,-9.820418023003835,-0.11997666277712951,-0.03006334389064844,13.059994999166529,0,0,0,42.87
75822,-0.12729288214702447,-0.06958993165527588,-9.820418023003835,-0.1499766627771295,-0.03006334389064844,11.999994999166528,0,0,0,43.06
75833,-0.21729288214702447,-0.059589931655275874,-9.810418023003836,-0.2099766627771295,-0.040063343890648445,10.579994999166528,0,0,0,43.0
75842,-0.20729288214702446,-0.06958993165527588,-9.810418023003836,-0.2399766627771295,-0.05006334389064845,8.989994999166528,0,0,0,42.93
75853,-0.14729288214702446,-0.07958993165527588,-9.800418023003836,-0.22997666277712953,-0.06006334389064844,8.129994999166529,0,0,0,43.06
75863,-0.0072928821470244765,-0.13958993165527586,-9.800418023003836,-0.18997666277712952,-0.07006334389064844,7.259994999166527,0,0,0,43.0
75872,0.10270711785297552,-0.15958993165527588,-9.810418023003836,-0.12997666277712952,-0.07006334389064844,5.819994999166528,0,0,0,43.0
75883,0.08270711785297553,-0.11958993165527589,-9.820418023003835,-0.09997666277712952,-0.05006334389064845,4.549994999166527,0,0,0,42.93
75892,0.042707117852975526,-0.08958993165527589,-9.820418023003835,-0.06997666277712952,-0.040063343890648445,3.8999949991665277,0,0,0,42.81
75903,0.022707117852975522,-0.059589931655275874,-9.810418023003836,-0.049976662777129525,-0.03006334389064844,3.7599949991665276,0,0,0,42.93
75913,-0.02729288214702448,-0.029589931655275875,-9.820418023003835,-0.02997666277712952,-0.02006334389064844,3.749994999166528,0,0,0,43.0
75922,-0.06729288214702447,-0.009589931655275876,-9.810418023003836,-0.02997666277712952,-6.334389064844141e-05,2.989994999166528,0,0,0,42.93
75933,-0.037292882147024475,-0.019589931655275877,-9.810418023003836,-0.019976662777129523,0.00993665610935156,1.2299949991665278,0,0,0,42.93
75942,-0.01729288214702447,-0.019589931655275877,-9.810418023003836,-0.009976662777129521,0.00993665610935156,0.15999499916652776,0,0,0,43.06
75953,-0.0072928821470244765,-0.019589931655275877,-9.810418023003836,2.3337222870478414e-05,0.00993665610935156,-0.11000500083347224,0,0,0,42.87
75963,-0.01729288214702447,-0.019589931655275877,-9.820418023003835,2.3337222870478414e-05,-6.334389064844141e-05,-0.04000500083347225,0,0,0,42.81
75972,-0.27729288214702447,0.08041006834472413,-9.820418023003835,0.05002333722287048,0.00993665610935156,2.159994999166528,0,0,0,42.93
75983,-0.2972928821470245,-0.019589931655275877,-9.820418023003835,0.030023337222870476,-0.02006334389064844,11.969994999166529,0,0,0,43.06
75992,0.03270711785297552,-0.13958993165527586,-9.820418023003835,-0.019976662777129523,-0.06006334389064844,18.489994999166527,0,0,0,42.93
76003,0.17270711785297554,-0.09958993165527588,-9.800418023003836,-0.049976662777129525,-0.06006334389064844,16.629994999166527,0,0,0,43.06
76013,0.15270711785297553,-0.04958993165527588,-9.810418023003836,-0.02997666277712952,-0.05006334389064845,10.719994999166529,0,0,0,42.75
76022,0.042707117852975526,-0.019589931655275877,-9.820418023003835,2.3337222870478414e-05,-0.03006334389064844,6.579994999166527,0,0,0,43.18
76033,-0.037292882147024475,-0.019589931655275877,-9.810418023003836,0.020023337222870478,-0.02006334389064844,6.289994999166527,0,0,0,42.93
76042,-0.06729288214702447,-0.019589931655275877,-9.810418023003836,0.01002333722287048,-0.010063343890648441,7.689994999166528,0,0,0,42.75
76053,-0.04729288214702448,-0.019589931655275877,-9.800418023003836,-0.009976662777129521,-0.02006334389064844,8.229994999166529,0,0,0,42.87
76063,0.012707117852975527,-0.029589931655275875,-9.800418023003836,-0.02997666277712952,-0.02006334389064844,7.019994999166527,0,0,0,42.93
76072,0.06270711785297552,-0.019589931655275877,-9.800418023003836,-0.02997666277712952,-0.010063343890648441,3.8399949991665276,0,0,0,42.93
76083,0.03270711785297552,-0.019589931655275877,-9.820418023003835,-0.019976662777129523,-6.334389064844141e-05,1.0399949991665278,0,0,0,42.93
76092,-0.0072928821470244765,-0.019589931655275877,-9.810418023003836,2.3337222870478414e-05,0.00993665610935156,-0.08000500083347224,0,0,0,43.06
76103,-0.08729288214702448,-0.009589931655275876,-9.810418023003836,2.3337222870478414e-05,0.00993665610935156,-0.08000500083347224,0,0,0,43.12
76113,-0.7572928821470245,0.13041006834472413,-9.820418023003835,-0.039976662777129524,-0.02006334389064844,4.829994999166527,0,0,0,42.93
76122,-0.7672928821470245,0.07041006834472412,-9.830418023003835,-0.1499766627771295,-0.08006334389064844,14.119994999166527,0,0,0,43.06
76133,-0.22729288214702448,-0.019589931655275877,-9.820418023003835,-0.1799766627771295,-0.10006334389064844,17.25999499916653,0,0,0,43.06
76142,0.20270711785297552,-0.08958993165527589,-9.810418023003836,-0.15997666277712952,-0.09006334389064843,14.649994999166529,0,0,0,43.06
76153,0.43270711785297555,-0.09958993165527588,-9.800418023003836,-0.09997666277712952,-0.07006334389064844,9.939994999166528,0,0,0,42.87
76163,0.4827071178529755,-0.10958993165527588,-9.800418023003836,2.3337222870478414e-05,-0.03006334389064844,5.929994999166527,0,0,0,43.06
76172,0.36270711785297555,-0.09958993165527588,-9.800418023003836,0.07002333722287049,-6.334389064844141e-05,2.679994999166528,0,0,0,42.87
76183,0.08270711785297553,-0.03958993165527588,-9.810418023003836,0.10002333722287049,-6.334389064844141e-05,0.9899949991665278,0,0,0,42.93
76192,-0.3672928821470245,0.11041006834472412,-9.820418023003835,0.060023337222870475,-6.334389064844141e-05,2.699994999166528,0,0,0,43.12
76203,-0.45729288214702446,0.11041006834472412,-9.810418023003836,-0.009976662777129521,-0.03006334389064844,7.189994999166528,0,0,0,43.31
76213,-0.19729288214702448,0.020410068344724124,-9.820418023003835,-0.06997666277712952,-0.06006334389064844,10.489994999166528,0,0,0,42.93
76222,-0.0072928821470244765,-0.07958993165527588,-9.810418023003836,-0.07997666277712952,-0.07006334389064844,11.329994999166528,0,0,0,42.93
76233,0.12270711785297551,-0.16958993165527586,-9.810418023003836,-0.11997666277712951,-0.08006334389064844,10.789994999166527,0,0,0,43.06
76242,0.052707117852975535,-0.14958993165527587,-9.810418023003836,-0.13997666277712953,-0.08006334389064844,9.939994999166528,0,0,0,43.12
76253,-0.04729288214702448,-0.10958993165527588,-9.820418023003835,-0.1499766627771295,-0.09006334389064843,10.229994999166529,0,0,0,42.93
76263,-0.08729288214702448,-0.08958993165527589,-9.810418023003836,-0.19997666277712953,-0.10006334389064844,11.179994999166528,0,0,0,42.87
76272,-0.10729288214702448,-0.06958993165527588,-9.820418023003835,-0.2099766627771295,-0.10006334389064844,11.599994999166528,0,0,0,42.87
76283,-0.11729288214702448,-0.06958993165527588,-9.830418023003835,-0.19997666277712953,-0.10006334389064844,11.899994999166529,0,0,0,43.0
76292,-0.11729288214702448,-0.07958993165527588,-9.830418023003835,-0.1799766627771295,-0.10006334389064844,12.449994999166528,0,0,0,43.0
76303,-0.07729288214702448,-0.09958993165527588,-9.820418023003835,-0.15997666277712952,-0.10006334389064844,12.689994999166528,0,0,0,43.0
76313,0.0027071178529755185,-0.12958993165527588,-9.810418023003836,-0.13997666277712953,-0.09006334389064843,12.709994999166529,0,0,0,42.87
76322,0.07270711785297553,-0.09958993165527588,-9.800418023003836,-0.12997666277712952,-0.08006334389064844,12.279994999166528,0,0,0,42.81
76333,0.10270711785297552,-0.03958993165527588,-9.810418023003836,-0.12997666277712952,-0.09006334389064843,11.419994999166528,0,0,0,42.93
76342,0.09270711785297552,-0.019589931655275877,-9.820418023003835,-0.12997666277712952,-0.08006334389064844,10.269994999166528,0,0,0,43.0
76353,0.07270711785297553,0.010410068344724122,-9.820418023003835,-0.12997666277712952,-0.07006334389064844,8.929994999166528,0,0,0,42.93
76363,0.03270711785297552,0.010410068344724122,-9.810418023003836,-0.10997666277712952,-0.06006334389064844,7.499994999166527,0,0,0,43.0
76372,-0.08729288214702448,-0.08958993165527589,-9.810418023003836,-0.09997666277712952,-0.06006334389064844,7.249994999166527,0,0,0,43.06
76383,-0.14729288214702446,-0.13958993165527586,-9.800418023003836,-0.10997666277712952,-0.06006334389064844,8.309994999166529,0,0,0,42.81
76392,-0.037292882147024475,-0.11958993165527589,-9.810418023003836,-0.08997666277712951,-0.06006334389064844,9.069994999166529,0,0,0,43.06
76403,-0.02729288214702448,-0.09958993165527588,-9.810418023003836,-0.05997666277712952,-0.05006334389064845,9.099994999166528,0,0,0,43.06
76413,-0.01729288214702447,-0.059589931655275874,-9.810418023003836,-0.039976662777129524,-0.040063343890648445,8.729994999166529,0,0,0,43.0
76422,-0.02729288214702448,-0.029589931655275875,-9.820418023003835,-0.009976662777129521,-0.03006334389064844,8.339994999166528,0,0,0,42.87
76433,-0.02729288214702448,0.04041006834472412,-9.810418023003836,-0.019976662777129523,-0.03006334389064844,7.959994999166527,0,0,0,43.06
76442,0.03270711785297552,0.10041006834472412,-9.810418023003836,-0.019976662777129523,-0.03006334389064844,7.069994999166528,0,0,0,42.93
76453,0.07270711785297553,0.13041006834472413,-9.810418023003836,-0.009976662777129521,-0.02006334389064844,5.899994999166528,0,0,0,43.06
76463,0.012707117852975527,0.07041006834472412,-9.810418023003836,2.3337222870478414e-05,-0.02006334389064844,5.069994999166528,0,0,0,43.06
76472,-0.10729288214702448,-0.059589931655275874,-9.810418023003836,2.3337222870478414e-05,-0.02006334389064844,5.439994999166528,0,0,0,43.0
76483,-0.11729288214702448,-0.07958993165527588,-9.810418023003836,2.3337222870478414e-05,-0.03006334389064844,6.459994999166527,0,0,0,43.06
76492,-0.07729288214702448,-0.019589931655275877,-9.820418023003835,2.3337222870478414e-05,-0.03006334389064844,6.929994999166527,0,0,0,42.93
76503,-0.04729288214702448,-0.019589931655275877,-9.820418023003835,2.3337222870478414e-05,-0.03006334389064844,6.899994999166528,0,0,0,43.06
76513,-0.07729288214702448,-0.019589931655275877,-9.810418023003836,2.3337222870478414e-05,-0.02006334389064844,6.9499949991665275,0,0,0,42.93
76522,-0.14729288214702446,-0.03958993165527588,-9.810418023003836,2.3337222870478414e-05,-0.03006334389064844,7.529994999166528,0,0,0,42.93
76533,-0.13729288214702448,-0.03958993165527588,-9.810418023003836,-0.009976662777129521,-0.040063343890648445,8.289994999166527,0,0,0,42.93
76542,-0.08729288214702448,0.05041006834472413,-9.810418023003836,-0.02997666277712952,-0.040063343890648445,8.589994999166528,0,0,0,43.18
76553,0.012707117852975527,0.17041006834472414,-9.810418023003836,-0.039976662777129524,-0.03006334389064844,7.829994999166527,0,0,0,42.87
76563,0.0027071178529755185,0.16041006834472413,-9.810418023003836,-0.039976662777129524,-0.02006334389064844,6.729994999166528,0,0,0,43.12
76572,-0.06729288214702447,0.08041006834472413,-9.810418023003836,-0.039976662777129524,-0.010063343890648441,6.099994999166527,0,0,0,42.87
76583,-0.16729288214702448,0.04041006834472412,-9.810418023003836,-0.049976662777129525,-0.02006334389064844,6.1999949991665275,0,0,0,42.93
76592,-0.2372928821470245,0.030410068344724126,-9.810418023003836,-0.05997666277712952,-0.03006334389064844,7.139994999166527,0,0,0,43.0
76603,-0.12729288214702447,0.04041006834472412,-9.800418023003836,-0.049976662777129525,-0.05006334389064845,7.979994999166528,0,0,0,42.93
76613,0.14270711785297552,0.04041006834472412,-9.800418023003836,-0.019976662777129523,-0.05006334389064845,7.779994999166528,0,0,0,43.06
76622,0.28270711785297553,0.04041006834472412,-9.800418023003836,2.3337222870478414e-05,-0.040063343890648445,6.319994999166528,0,0,0,43.06
76633,-0.01729288214702447,0.06041006834472412,-9.810418023003836,-0.039976662777129524,-0.03006334389064844,5.1999949991665275,0,0,0,42.87
76642,-0.37729288214702444,0.09041006834472412,-9.810418023003836,-0.08997666277712951,-0.05006334389064845,6.1199949991665274,0,0,0,43.06
76653,-0.37729288214702444,-0.07958993165527588,-9.810418023003836,-0.13997666277712953,-0.08006334389064844,8.529994999166528,0,0,0,43.06
76663,-0.05729288214702448,-0.19958993165527586,-9.810418023003836,-0.15997666277712952,-0.08006334389064844,9.579994999166528,0,0,0,43.12
76672,0.042707117852975526,-0.20958993165527587,-9.820418023003835,-0.12997666277712952,-0.08006334389064844,9.169994999166528,0,0,0,42.87
76683,-0.06729288214702447,-0.22958993165527586,-9.810418023003836,-0.07997666277712952,-0.06006334389064844,8.799994999166529,0,0,0,43.06
76692,-0.16729288214702448,-0.2895899316552759,-9.810418023003836,-0.05997666277712952,-0.07006334389064844,9.309994999166529,0,0,0,43.06
76703,-0.09729288214702447,-0.24958993165527588,-9.810418023003836,-0.049976662777129525,-0.08006334389064844,10.099994999166528,0,0,0,43.0
76713,0.12270711785297551,-0.09958993165527588,-9.810418023003836,-0.049976662777129525,-0.08006334389064844,9.939994999166528,0,0,0,42.93
76722,0.20270711785297552,0.06041006834472412,-9.810418023003836,-0.05997666277712952,-0.07006334389064844,8.749994999166528,0,0,0,42.87
76733,0.08270711785297553,0.10041006834472412,-9.810418023003836,-0.05997666277712952,-0.06006334389064844,7.769994999166527,0,0,0,42.87
76742,0.03270711785297552,0.07041006834472412,-9.810418023003836,-0.039976662777129524,-0.06006334389064844,7.459994999166527,0,0,0,42.93
76753,0.17270711785297554,0.10041006834472412,-9.810418023003836,2.3337222870478414e-05,-0.05006334389064845,6.789994999166527,0,0,0,42.75
76763,0.34270711785297553,0.15041006834472415,-9.810418023003836,0.04002333722287048,-0.02006334389064844,4.979994999166528,0,0,0,43.06
76772,0.3327071178529755,0.13041006834472413,-9.810418023003836,0.08002333722287049,-6.334389064844141e-05,2.2599949991665276,0,0,0,42.93
76783,0.10270711785297552,0.04041006834472412,-9.810418023003836,0.10002333722287049,-6.334389064844141e-05,0.4199949991665277,0,0,0,43.06
76792,-0.02729288214702448,0.0004100683447241238,-9.810418023003836,0.10002333722287049,-6.334389064844141e-05,-0.16000500083347224,0,0,0,43.0
76803,-0.06729288214702447,-0.019589931655275877,-9.810418023003836,0.09002333722287048,0.00993665610935156,-0.14000500083347225,0,0,0,43.18
76813,-0.06729288214702447,-0.019589931655275877,-9.810418023003836,0.060023337222870475,0.00993665610935156,-0.04000500083347225,0,0,0,43.18
76822,-0.04729288214702448,-0.019589931655275877,-9.820418023003835,0.04002333722287048,-6.334389064844141e-05,0.009994999166527754,0,0,0,43.06
76833,-0.04729288214702448,-0.009589931655275876,-9.810418023003836,0.030023337222870476,-6.334389064844141e-05,0.009994999166527754,0,0,0,43.06
76842,-0.04729288214702448,-0.019589931655275877,-9.810418023003836,0.01002333722287048,-6.334389064844141e-05,0.009994999166527754,0,0,0,42.87
76853,-0.04729288214702448,-0.019589931655275877,-9.810418023003836,2.3337222870478414e-05,-6.334389064844141e-05,0.009994999166527754,0,0,0,43.06
76863,-0.04729288214702448,-0.019589931655275877,-9.820418023003835,-0.019976662777129523,-6.334389064844141e-05,-5.000833472245374e-06,0,0,0,42.93
76872,-0.04729288214702448,-0.019589931655275877,-9.810418023003836,-0.009976662777129521,-6.334389064844141e-05,-5.000833472245374e-06,0,0,0,42.93
76883,-0.04729288214702448,-0.009589931655275876,-9.810418023003836,-0.009976662777129521,-6.334389064844141e-05,-5.000833472245374e-06,0,0,0,43.06
76892,-0.04729288214702448,-0.009589931655275876,-9.810418023003836,-0.009976662777129521,0.00993665610935156,-5.000833472245374e-06,0,0,0,43.06
76903,-0.04729288214702448,-0.019589931655275877,-9.810418023003836,2.3337222870478414e-05,-6.334389064844141e-05,-5.000833472245374e-06,0,0,0,42.87
76913,-0.04729288214702448,-0.019589931655275877,-9.810418023003836,2.3337222870478414e-05,-6.334389064844141e-05,-5.000833472245374e-06,0,0,0,42.87
76922,-0.04729288214702448,-0.019589931655275877,-9.810418023003836,-0.009976662777129521,0.00993665610935156,-5.000833472245374e-06,0,0,0,42.93
76933,-0.04729288214702448,-0.019589931655275877,-9.810418023003836,-0.009976662777129521,0.00993665610935156,-0.010005000833472246,0,0,0,43.06
76942,-0.037292882147024475,-0.019589931655275877,-9.810418023003836,2.3337222870478414e-05,0.00993665610935156,-0.010005000833472246,0,0,0,42.93
76953,-0.04729288214702448,-0.009589931655275876,-9.810418023003836,-0.009976662777129521,0.00993665610935156,-0.010005000833472246,0,0,0,42.93
76963,-0.04729288214702448,-0.019589931655275877,-9.800418023003836,-0.019976662777129523,-6.334389064844141e-05,-0.020005000833472245,0,0,0,42.81
76972,-0.04729288214702448,-0.019589931655275877,-9.800418023003836,-0.009976662777129521,0.00993665610935156,-0.010005000833472246,0,0,0,42.93
76983,-0.04729288214702448,-0.019589931655275877,-9.810418023003836,-0.019976662777129523,-6.334389064844141e-05,-0.010005000833472246,0,0,0,43.0
76992,-0.05729288214702448,-0.019589931655275877,-9.810418023003836,-0.019976662777129523,-6.334389064844141e-05,-0.020005000833472245,0,0,0,42.93
77003,-0.05729288214702448,-0.009589931655275876,-9.820418023003835,-0.009976662777129521,-6.334389064844141e-05,-0.020005000833472245,0,0,0,42.93
77013,-0.04729288214702448,-0.009589931655275876,-9.820418023003835,-0.009976662777129521,0.00993665610935156,-0.020005000833472245,0,0,0,42.68
77022,-0.04729288214702448,-0.009589931655275876,-9.820418023003835,2.3337222870478414e-05,0.00993665610935156,-0.030005000833472243,0,0,0,43.0
77033,-0.04729288214702448,-0.019589931655275877,-9.820418023003835,-0.009976662777129521,0.00993665610935156,-0.04000500083347225,0,0,0,42.93
77042,-0.04729288214702448,-0.019589931655275877,-9.820418023003835,-0.02997666277712952,0.00993665610935156,-0.04000500083347225,0,0,0,43.06
77053,-0.04729288214702448,-0.019589931655275877,-9.810418023003836,-0.039976662777129524,0.00993665610935156,-0.04000500083347225,0,0,0,42.93
77063,-0.04729288214702448,-0.009589931655275876,-9.810418023003836,-0.049976662777129525,0.00993665610935156,-0.05000500083347225,0,0,0,43.0
77072,-0.037292882147024475,-0.009589931655275876,-9.810418023003836,-0.05997666277712952,0.01993665610935156,-0.060005000833472245,0,0,0,42.93
77083,-0.04729288214702448,-0.009589931655275876,-9.810418023003836,-0.049976662777129525,0.01993665610935156,-0.060005000833472245,0,0,0,42.87
77092,-0.04729288214702448,-0.009589931655275876,-9.830418023003835,-0.019976662777129523,0.00993665610935156,-0.05000500083347225,0,0,0,43.0
77103,-0.037292882147024475,0.0004100683447241238,-9.820418023003835,2.3337222870478414e-05,-6.334389064844141e-05,-0.04000500083347225,0,0,0,42.81
77113,-0.037292882147024475,0.0004100683447241238,-9.810418023003836,0.030023337222870476,-6.334389064844141e-05,-0.020005000833472245,0,0,0,42.87
77122,-0.037292882147024475,-0.009589931655275876,-9.810418023003836,0.05002333722287048,-6.334389064844141e-05,-0.010005000833472246,0,0,0,43.06
77133,-0.04729288214702448,-0.009589931655275876,-9.810418023003836,0.04002333722287048,-6.334389064844141e-05,-0.010005000833472246,0,0,0,43.0
77142,-0.05729288214702448,-0.019589931655275877,-9.810418023003836,0.020023337222870478,-6.334389064844141e-05,-0.010005000833472246,0,0,0,42.93
77153,-0.04729288214702448,-0.019589931655275877,-9.820418023003835,-0.039976662777129524,-6.334389064844141e-05,-0.020005000833472245,0,0,0,42.93
77163,-0.04729288214702448,-0.009589931655275876,-9.810418023003836,-0.039976662777129524,-6.334389064844141e-05,-0.060005000833472245,0,0,0,43.12
77172,-0.04729288214702448,-0.019589931655275877,-9.810418023003836,-0.049976662777129525,-6.334389064844141e-05,-0.07000500083347225,0,0,0,42.87
77183,-0.04729288214702448,-0.009589931655275876,-9.800418023003836,-0.06997666277712952,-6.334389064844141e-05,-0.07000500083347225,0,0,0,42.93
77192,-0.05729288214702448,0.0004100683447241238,-9.810418023003836,-0.06997666277712952,-0.010063343890648441,-0.07000500083347225,0,0,0,42.81
77203,-0.04729288214702448,0.020410068344724124,-9.810418023003836,2.3337222870478414e-05,-0.03006334389064844,-0.04000500083347225,0,0,0,43.06
77213,-0.04729288214702448,0.0004100683447241238,-9.800418023003836,0.060023337222870475,-0.03006334389064844,-0.020005000833472245,0,0,0,43.25
77222,-0.04729288214702448,-0.019589931655275877,-9.810418023003836,0.030023337222870476,-0.010063343890648441,-0.010005000833472246,0,0,0,43.0
77233,-0.037292882147024475,-0.019589931655275877,-9.820418023003835,-0.02997666277712952,-0.02006334389064844,-0.030005000833472243,0,0,0,43.06
77242,-0.02729288214702448,-0.029589931655275875,-9.840418023003835,-0.12997666277712952,-0.06006334389064844,-0.09000500083347224,0,0,0,43.06
77253,-0.02729288214702448,-0.019589931655275877,-9.840418023003835,-0.24997666277712952,-0.11006334389064844,-0.21000500083347223,0,0,0,43.06
77263,-0.07729288214702448,0.010410068344724122,-9.800418023003836,-0.2399766627771295,-0.09006334389064843,-0.2700050008334723,0,0,0,42.87
77272,-0.08729288214702448,-0.009589931655275876,-9.790418023003836,-0.1499766627771295,-0.02006334389064844,-0.20000500083347225,0,0,0,42.93
77283,-0.05729288214702448,0.0004100683447241238,-9.800418023003836,-0.1799766627771295,-0.010063343890648441,-0.12000500083347224,0,0,0,42.87
77292,-0.05729288214702448,0.020410068344724124,-9.800418023003836,-0.07997666277712952,-6.334389064844141e-05,-0.05000500083347225,0,0,0,43.06
77303,-0.04729288214702448,0.010410068344724122,-9.810418023003836,-0.019976662777129523,-6.334389064844141e-05,-0.010005000833472246,0,0,0,43.12
77313,-0.04729288214702448,0.0004100683447241238,-9.810418023003836,2.3337222870478414e-05,-6.334389064844141e-05,-5.000833472245374e-06,0,0,0,42.87
77322,-0.04729288214702448,0.0004100683447241238,-9.820418023003835,2.3337222870478414e-05,-6.334389064844141e-05,-5.000833472245374e-06,0,0,0,43.12
77333,-0.04729288214702448,0.0004100683447241238,-9.820418023003835,2.3337222870478414e-05,-6.334389064844141e-05,-0.010005000833472246,0,0,0,42.87
77342,-0.05729288214702448,-0.009589931655275876,-9.820418023003835,2.3337222870478414e-05,-6.334389064844141e-05,-5.000833472245374e-06,0,0,0,42.93
77353,-0.04729288214702448,-0.009589931655275876,-9.810418023003836,2.3337222870478414e-05,-6.334389064844141e-05,-5.000833472245374e-06,0,0,0,43.06
77363,-0.04729288214702448,0.0004100683447241238,-9.810418023003836,2.3337222870478414e-05,-6.334389064844141e-05,-5.000833472245374e-06,0,0,0,42.75
77372,-0.04729288214702448,0.0004100683447241238,-9.810418023003836,2.3337222870478414e-05,-6.334389064844141e-05,-5.000833472245374e-06,0,0,0,43.06
77383,-0.05729288214702448,0.0004100683447241238,-9.820418023003835,2.3337222870478414e-05,-6.334389064844141e-05,-5.000833472245374e-06,0,0,0,43.12
77392,-0.04729288214702448,0.0004100683447241238,-9.810418023003836,2.3337222870478414e-05,-6.334389064844141e-05,-5.000833472245374e-06,0,0,0,43.06
77403,-0.05729288214702448,0.0004100683447241238,-9.810418023003836,2.3337222870478414e-05,-6.334389064844141e-05,-5.000833472245374e-06,0,0,0,43.06
77413,-0.05729288214702448,0.010410068344724122,-9.810418023003836,2.3337222870478414e-05,-6.334389064844141e-05,-5.000833472245374e-06,0,0,0,42.93
77422,-0.05729288214702448,0.010410068344724122,-9.810418023003836,2.3337222870478414e-05,-6.334389064844141e-05,-5.000833472245374e-06,0,0,0,43.06
77433,-0.04729288214702448,0.0004100683447241238,-9.810418023003836,2.3337222870478414e-05,-6.334389064844141e-05,-5.000833472245374e-06,0,0,0,42.93
77442,-0.04729288214702448,0.0004100683447241238,-9.810418023003836,2.3337222870478414e-05,-6.334389064844141e-05,-5.000833472245374e-06,0,0,0,42.87
77453,-0.037292882147024475,0.0004100683447241238,-9.810418023003836,2.3337222870478414e-05,-6.334389064844141e-05,-5.000833472245374e-06,0,0,0,42.87
77463,-0.037292882147024475,0.0004100683447241238,-9.810418023003836,2.3337222870478414e-05,-6.334389064844141e-05,-5.000833472245374e-06,0,0,0,42.93
77472,-0.04729288214702448,0.0004100683447241238,-9.810418023003836,2.3337222870478414e-05,-6.334389064844141e-05,-5.000833472245374e-06,0,0,0,43.18
77483,-0.05729288214702448,0.0004100683447241238,-9.820418023003835,2.3337222870478414e-05,-6.334389064844141e-05,-5.000833472245374e-06,0,0,0,42.87
77492,-0.05729288214702448,0.0004100683447241238,-9.810418023003836,2.3337222870478414e-05,-6.334389064844141e-05,-5.000833472245374e-06,0,0,0,42.93
77503,-0.05729288214702448,0.0004100683447241238,-9.820418023003835,2.3337222870478414e-05,-6.334389064844141e-05,-5.000833472245374e-06,0,0,0,43.0
77513,-0.05729288214702448,0.010410068344724122,-9.810418023003836,2.3337222870478414e-05,-6.334389064844141e-05,-5.000833472245374e-06,0,0,0,42.93
77522,-0.04729288214702448,0.0004100683447241238,-9.820418023003835,2.3337222870478414e-05,-6.334389064844141e-05,-5.000833472245374e-06,0,0,0,42.87
77533,-0.04729288214702448,-0.009589931655275876,-9.810418023003836,2.3337222870478414e-05,-6.334389064844141e-05,-5.000833472245374e-06,0,0,0,43.06
77542,-0.04729288214702448,-0.009589931655275876,-9.820418023003835,2.3337222870478414e-05,-6.334389064844141e-05,-5.000833472245374e-06,0,0,0,43.06
77553,-0.05729288214702448,0.0004100683447241238,-9.820418023003835,2.3337222870478414e-05,-6.334389064844141e-05,-5.000833472245374e-06,0,0,0,43.06
77563,-0.06729288214702447,0.0004100683447241238,-9.810418023003836,2.3337222870478414e-05,-6.334389064844141e-05,-5.000833472245374e-06,0,0,0,43.06
77572,-0.06729288214702447,0.0004100683447241238,-9.810418023003836,2.3337222870478414e-05,-6.334389064844141e-05,-5.000833472245374e-06,0,0,0,43.0
77583,-0.05729288214702448,0.0004100683447241238,-9.820418023003835,2.3337222870478414e-05,-6.334389064844141e-05,-5.000833472245374e-06,0,0,0,43.12
77592,-0.05729288214702448,0.0004100683447241238,-9.820418023003835,2.3337222870478414e-05,-6.334389064844141e-05,-5.000833472245374e-06,0,0,0,43.0
77603,-0.04729288214702448,0.0004100683447241238,-9.820418023003835,2.3337222870478414e-05,-6.334389064844141e-05,-5.000833472245374e-06,0,0,0,43.06
77613,-0.04729288214702448,0.010410068344724122,-9.810418023003836,2.3337222870478414e-05,-6.334389064844141e-05,-5.000833472245374e-06,0,0,0,43.06
77622,-0.037292882147024475,0.0004100683447241238,-9.810418023003836,2.3337222870478414e-05,-6.334389064844141e-05,-5.000833472245374e-06,0,0,0,42.56
77633,-0.04729288214702448,0.0004100683447241238,-9.800418023003836,2.3337222870478414e-05,-6.334389064844141e-05,-5.000833472245374e-06,0,0,0,42.93
77642,-0.05729288214702448,0.0004100683447241238,-9.810418023003836,2.3337222870478414e-05,-6.334389064844141e-05,-5.000833472245374e-06,0,0,0,42.93
77653,-0.05729288214702448,0.0004100683447241238,-9.820418023003835,2.3337222870478414e-05,-6.334389064844141e-05,-5.000833472245374e-06,0,0,0,43.0
77663,-0.05729288214702448,0.0004100683447241238,-9.810418023003836,2.3337222870478414e-05,-6.334389064844141e-05,-5.000833472245374e-06,0,0,0,43.12
77672,-0.04729288214702448,0.0004100683447241238,-9.810418023003836,2.3337222870478414e-05,-6.334389064844141e-05,-5.000833472245374e-06,0,0,0,42.93
77683,-0.04729288214702448,0.0004100683447241238,-9.810418023003836,2.3337222870478414e-05,-6.334389064844141e-05,-5.000833472245374e-06,0,0,0,43.0
77692,-0.04729288214702448,0.0004100683447241238,-9.810418023003836,2.3337222870478414e-05,-6.334389064844141e-05,-5.000833472245374e-06,0,0,0,43.06
77703,-0.05729288214702448,0.0004100683447241238,-9.810418023003836,2.3337222870478414e-05,-6.334389064844141e-05,-5.000833472245374e-06,0,0,0,43.18
77713,-0.04729288214702448,0.0004100683447241238,-9.800418023003836,2.3337222870478414e-05,-6.334389064844141e-05,-5.000833472245374e-06,0,0,0,43.0
77722,-0.04729288214702448,0.0004100683447241238,-9.800418023003836,-0.009976662777129521,-6.334389064844141e-05,-5.000833472245374e-06,0,0,0,43.0
77733,-0.04729288214702448,0.0004100683447241238,-9.810418023003836,2.3337222870478414e-05,-6.334389064844141e-05,-5.000833472245374e-06,0,0,0,43.06
77742,-0.037292882147024475,-0.009589931655275876,-9.800418023003836,2.3337222870478414e-05,-6.334389064844141e-05,-5.000833472245374e-06,0,0,0,42.93
77753,-0.04729288214702448,-0.019589931655275877,-9.800418023003836,-0.039976662777129524,-0.040063343890648445,-5.000833472245374e-06,0,0,0,42.75
77763,-0.05729288214702448,-0.009589931655275876,-9.810418023003836,-0.07997666277712952,-0.05006334389064845,-5.000833472245374e-06,0,0,0,42.93
77772,-0.04729288214702448,0.0004100683447241238,-9.810418023003836,-0.05997666277712952,-0.02006334389064844,-5.000833472245374e-06,0,0,0,42.87
77783,-0.04729288214702448,0.0004100683447241238,-9.820418023003835,-0.019976662777129523,-6.334389064844141e-05,-5.000833472245374e-06,0,0,0,42.93
77792,-0.04729288214702448,0.010410068344724122,-9.820418023003835,0.030023337222870476,0.01993665610935156,-5.000833472245374e-06,0,0,0,43.06
77803,-0.05729288214702448,0.010410068344724122,-9.810418023003836,0.060023337222870475,0.039936656109351557,-5.000833472245374e-06,0,0,0,43.06
77813,-0.04729288214702448,0.010410068344724122,-9.800418023003836,0.04002333722287048,0.029936656109351558,-5.000833472245374e-06,0,0,0,43.06
77822,-0.04729288214702448,0.0004100683447241238,-9.800418023003836,0.01002333722287048,0.01993665610935156,-5.000833472245374e-06,0,0,0,42.87
77833,-0.04729288214702448,-0.009589931655275876,-9.800418023003836,2.3337222870478414e-05,0.00993665610935156,-5.000833472245374e-06,0,0,0,43.0
77842,-0.04729288214702448,0.0004100683447241238,-9.800418023003836,2.3337222870478414e-05,-6.334389064844141e-05,-5.000833472245374e-06,0,0,0,42.75
77853,-0.05729288214702448,-0.009589931655275876,-9.810418023003836,2.3337222870478414e-05,-6.334389064844141e-05,-5.000833472245374e-06,0,0,0,42.93
77863,-0.05729288214702448,0.0004100683447241238,-9.810418023003836,2.3337222870478414e-05,-6.334389064844141e-05,-5.000833472245374e-06,0,0,0,42.87
77872,-0.04729288214702448,0.0004100683447241238,-9.810418023003836,2.3337222870478414e-05,-6.334389064844141e-05,-5.000833472245374e-06,0,0,0,43.06
77883,-0.04729288214702448,0.0004100683447241238,-9.810418023003836,2.3337222870478414e-05,-6.334389064844141e-05,-5.000833472245374e-06,0,0,0,42.87
77892,-0.05729288214702448,0.0004100683447241238,-9.820418023003835,2.3337222870478414e-05,-6.334389064844141e-05,-5.000833472245374e-06,0,0,0,42.93
77903,-0.04729288214702448,0.0004100683447241238,-9.820418023003835,2.3337222870478414e-05,-6.334389064844141e-05,-5.000833472245374e-06,0,0,0,43.06
77913,-0.04729288214702448,0.0004100683447241238,-9.810418023003836,2.3337222870478414e-05,-6.334389064844141e-05,-5.000833472245374e-06,0,0,0,42.87
77922,-0.04729288214702448,0.0004100683447241238,-9.810418023003836,2.3337222870478414e-05,-6.334389064844141e-05,-5.000833472245374e-06,0,0,0,43.06
77933,-0.04729288214702448,0.0004100683447241238,-9.810418023003836,2.3337222870478414e-05,-6.334389064844141e-05,-5.000833472245374e-06,0,0,0,42.87
77942,-0.05729288214702448,0.0004100683447241238,-9.810418023003836,2.3337222870478414e-05,-6.334389064844141e-05,-5.000833472245374e-06,0,0,0,42.93
77953,-0.05729288214702448,0.010410068344724122,-9.810418023003836,2.3337222870478414e-05,-6.334389064844141e-05,-5.000833472245374e-06,0,0,0,43.06
77963,-0.04729288214702448,0.0004100683447241238,-9.800418023003836,2.3337222870478414e-05,-6.334389064844141e-05,-5.000833472245374e-06,0,0,0,42.68
77972,-0.05729288214702448,0.010410068344724122,-9.810418023003836,2.3337222870478414e-05,-6.334389064844141e-05,-5.000833472245374e-06,0,0,0,42.81
77983,-0.05729288214702448,0.010410068344724122,-9.810418023003836,2.3337222870478414e-05,-6.334389064844141e-05,-5.000833472245374e-06,0,0,0,43.06
77992,-0.04729288214702448,0.0004100683447241238,-9.810418023003836,2.3337222870478414e-05,-6.334389064844141e-05,-5.000833472245374e-06,0,0,0,42.87
78003,-0.037292882147024475,0.0004100683447241238,-9.820418023003835,2.3337222870478414e-05,-6.334389064844141e-05,-5.000833472245374e-06,0,0,0,43.0
78013,-0.04729288214702448,0.0004100683447241238,-9.820418023003835,2.3337222870478414e-05,-6.334389064844141e-05,-5.000833472245374e-06,0,0,0,42.87
78022,-0.05729288214702448,0.0004100683447241238,-9.810418023003836,2.3337222870478414e-05,-6.334389064844141e-05,-5.000833472245374e-06,0,0,0,43.06
78033,-0.05729288214702448,0.0004100683447241238,-9.810418023003836,2.3337222870478414e-05,-6.334389064844141e-05,-5.000833472245374e-06,0,0,0,42.93
78042,-0.05729288214702448,0.0004100683447241238,-9.800418023003836,2.3337222870478414e-05,-6.334389064844141e-05,-5.000833472245374e-06,0,0,0,42.87
78053,-0.04729288214702448,0.0004100683447241238,-9.800418023003836,2.3337222870478414e-05,-6.334389064844141e-05,-5.000833472245374e-06,0,0,0,43.06
78063,-0.04729288214702448,0.010410068344724122,-9.800418023003836,2.3337222870478414e-05,-6.334389064844141e-05,-5.000833472245374e-06,0,0,0,42.81
78072,-0.04729288214702448,0.010410068344724122,-9.810418023003836,2.3337222870478414e-05,-6.334389064844141e-05,-5.000833472245374e-06,0,0,0,43.06
78083,-0.04729288214702448,0.010410068344724122,-9.820418023003835,2.3337222870478414e-05,-6.334389064844141e-05,-5.000833472245374e-06,0,0,0,42.87
78092,-0.04729288214702448,0.010410068344724122,-9.830418023003835,2.3337222870478414e-05,-6.334389064844141e-05,-5.000833472245374e-06,0,0,0,43.0
78103,-0.04729288214702448,0.0004100683447241238,-9.820418023003835,2.3337222870478414e-05,-6.334389064844141e-05,-5.000833472245374e-06,0,0,0,43.06
78113,-0.04729288214702448,0.0004100683447241238,-9.800418023003836,2.3337222870478414e-05,-6.334389064844141e-05,-5.000833472245374e-06,0,0,0,42.93
78122,-0.04729288214702448,0.0004100683447241238,-9.810418023003836,2.3337222870478414e-05,-6.334389064844141e-05,-5.000833472245374e-06,0,0,0,43.06
78133,-0.04729288214702448,0.0004100683447241238,-9.810418023003836,2.3337222870478414e-05,-6.334389064844141e-05,-5.000833472245374e-06,0,0,0,42.87
78142,-0.04729288214702448,0.0004100683447241238,-9.810418023003836,2.3337222870478414e-05,-6.334389064844141e-05,-5.000833472245374e-06,0,0,0,43.06
78153,-0.04729288214702448,-0.009589931655275876,-9.820418023003835,2.3337222870478414e-05,-6.334389064844141e-05,-5.000833472245374e-06,0,0,0,42.93
78163,-0.04729288214702448,0.0004100683447241238,-9.810418023003836,2.3337222870478414e-05,-6.334389064844141e-05,-5.000833472245374e-06,0,0,0,42.81
78172,-0.04729288214702448,0.0004100683447241238,-9.800418023003836,2.3337222870478414e-05,-6.334389064844141e-05,-5.000833472245374e-06,0,0,0,43.06
78183,-0.04729288214702448,0.0004100683447241238,-9.810418023003836,2.3337222870478414e-05,-6.334389064844141e-05,-5.000833472245374e-06,0,0,0,42.93
78192,-0.04729288214702448,0.0004100683447241238,-9.810418023003836,2.3337222870478414e-05,-6.334389064844141e-05,-5.000833472245374e-06,0,0,0,43.0
78203,-0.04729288214702448,0.020410068344724124,-9.790418023003836,0.020023337222870478,-6.334389064844141e-05,-5.000833472245374e-06,0,0,0,43.06
78213,-0.05729288214702448,0.010410068344724122,-9.790418023003836,0.12002333722287048,0.06993665610935157,-0.05000500083347225,0,0,0,43.06
78222,-0.06729288214702447,-0.019589931655275877,-9.830418023003835,0.1300233372228705,0.10993665610935156,-0.05000500083347225,0,0,0,43.0
78233,-0.04729288214702448,-0.029589931655275875,-9.850418023003835,0.030023337222870476,0.05993665610935155,-0.020005000833472245,0,0,0,43.06
78242,-0.04729288214702448,-0.009589931655275876,-9.820418023003835,-0.08997666277712951,-0.010063343890648441,-5.000833472245374e-06,0,0,0,42.93
78253,-0.06729288214702447,0.05041006834472413,-9.780418023003836,2.3337222870478414e-05,0.01993665610935156,0.019994999166527756,0,0,0,42.87
78263,-0.037292882147024475,-0.009589931655275876,-9.770418023003835,0.12002333722287048,-6.334389064844141e-05,0.009994999166527754,0,0,0,42.87
78272,-0.02729288214702448,-0.019589931655275877,-9.790418023003836,0.060023337222870475,-0.07006334389064844,-5.000833472245374e-06,0,0,0,43.06
78283,-0.037292882147024475,-0.009589931655275876,-9.810418023003836,0.020023337222870478,-0.10006334389064844,-5.000833472245374e-06,0,0,0,43.0
78292,-0.04729288214702448,-0.009589931655275876,-9.840418023003835,0.01002333722287048,-0.07006334389064844,-5.000833472245374e-06,0,0,0,43.06
78303,-0.06729288214702447,0.0004100683447241238,-9.830418023003835,-0.009976662777129521,-0.010063343890648441,-5.000833472245374e-06,0,0,0,43.06
78313,-0.05729288214702448,0.0004100683447241238,-9.830418023003835,-0.009976662777129521,0.029936656109351558,0.009994999166527754,0,0,0,43.06
78322,-0.05729288214702448,0.0004100683447241238,-9.830418023003835,0.020023337222870478,0.05993665610935155,0.009994999166527754,0,0,0,43.06
78333,-0.05729288214702448,0.0004100683447241238,-9.810418023003836,0.07002333722287049,0.04993665610935156,-5.000833472245374e-06,0,0,0,42.93
78342,-0.04729288214702448,-0.009589931655275876,-9.810418023003836,0.09002333722287048,0.04993665610935156,-5.000833472245374e-06,0,0,0,42.93
78353,-0.037292882147024475,-0.009589931655275876,-9.800418023003836,0.07002333722287049,0.029936656109351558,-5.000833472245374e-06,0,0,0,42.93
78363,-0.02729288214702448,-0.019589931655275877,-9.800418023003836,0.04002333722287048,-6.334389064844141e-05,-5.000833472245374e-06,0,0,0,43.06
78372,-0.037292882147024475,-0.019589931655275877,-9.810418023003836,-0.009976662777129521,-0.02006334389064844,-5.000833472245374e-06,0,0,0,43.06
78383,-0.04729288214702448,-0.009589931655275876,-9.810418023003836,-0.039976662777129524,-0.03006334389064844,-5.000833472245374e-06,0,0,0,42.75
78392,-0.05729288214702448,-0.009589931655275876,-9.800418023003836,-0.02997666277712952,-0.02006334389064844,-5.000833472245374e-06,0,0,0,43.06
78403,-0.06729288214702447,-0.009589931655275876,-9.800418023003836,-0.019976662777129523,-0.02006334389064844,-5.000833472245374e-06,0,0,0,43.0
78413,-0.05729288214702448,-0.009589931655275876,-9.810418023003836,2.3337222870478414e-05,-0.02006334389064844,-0.010005000833472246,0,0,0,42.93
78422,-0.05729288214702448,-0.009589931655275876,-9.820418023003835,2.3337222870478414e-05,-0.010063343890648441,-0.010005000833472246,0,0,0,43.0
78433,-0.05729288214702448,0.0004100683447241238,-9.820418023003835,0.020023337222870478,-6.334389064844141e-05,-0.020005000833472245,0,0,0,42.93
78442,-0.04729288214702448,0.0004100683447241238,-9.820418023003835,0.05002333722287048,0.00993665610935156,-0.010005000833472246,0,0,0,42.87
78453,-0.05729288214702448,-0.009589931655275876,-9.820418023003835,0.060023337222870475,0.01993665610935156,-5.000833472245374e-06,0,0,0,42.93
78463,-0.04729288214702448,-0.009589931655275876,-9.820418023003835,0.060023337222870475,0.01993665610935156,-5.000833472245374e-06,0,0,0,43.06
78472,-0.05729288214702448,-0.009589931655275876,-9.820418023003835,0.07002333722287049,0.029936656109351558,-5.000833472245374e-06,0,0,0,42.81
78483,-0.05729288214702448,-0.009589931655275876,-9.810418023003836,0.07002333722287049,0.04993665610935156,-5.000833472245374e-06,0,0,0,43.06
78492,-0.04729288214702448,-0.019589931655275877,-9.810418023003836,0.060023337222870475,0.04993665610935156,-5.000833472245374e-06,0,0,0,43.12
78503,-0.037292882147024475,-0.019589931655275877,-9.810418023003836,0.030023337222870476,0.029936656109351558,-5.000833472245374e-06,0,0,0,42.93
78513,-0.037292882147024475,-0.019589931655275877,-9.810418023003836,0.020023337222870478,0.01993665610935156,-5.000833472245374e-06,0,0,0,42.87
78522,-0.04729288214702448,-0.019589931655275877,-9.800418023003836,0.030023337222870476,0.00993665610935156,-5.000833472245374e-06,0,0,0,42.93
78533,-0.04729288214702448,-0.019589931655275877,-9.810418023003836,0.030023337222870476,0.01993665610935156,-5.000833472245374e-06,0,0,0,42.93
78542,-0.04729288214702448,-0.009589931655275876,-9.820418023003835,0.030023337222870476,0.01993665610935156,-5.000833472245374e-06,0,0,0,42.93
78553,-0.04729288214702448,-0.009589931655275876,-9.820418023003835,0.030023337222870476,0.00993665610935156,-5.000833472245374e-06,0,0,0,42.93
78563,-0.04729288214702448,-0.019589931655275877,-9.810418023003836,0.030023337222870476,-6.334389064844141e-05,-5.000833472245374e-06,0,0,0,43.12
78572,-0.037292882147024475,-0.019589931655275877,-9.810418023003836,0.020023337222870478,-6.334389064844141e-05,-5.000833472245374e-06,0,0,0,43.06
78583,-0.037292882147024475,-0.019589931655275877,-9.810418023003836,-0.009976662777129521,-0.02006334389064844,0.009994999166527754,0,0,0,42.93
78592,-0.037292882147024475,-0.019589931655275877,-9.800418023003836,-0.039976662777129524,-0.040063343890648445,0.009994999166527754,0,0,0,42.93
78603,-0.04729288214702448,-0.019589931655275877,-9.800418023003836,-0.05997666277712952,-0.05006334389064845,0.009994999166527754,0,0,0,42.93
78613,-0.05729288214702448,-0.009589931655275876,-9.820418023003835,-0.05997666277712952,-0.040063343890648445,0.009994999166527754,0,0,0,42.81
78622,-0.06729288214702447,-0.009589931655275876,-9.820418023003835,-0.039976662777129524,-0.02006334389064844,0.019994999166527756,0,0,0,43.06
78633,-0.05729288214702448,-0.009589931655275876,-9.820418023003835,-0.009976662777129521,-6.334389064844141e-05,0.019994999166527756,0,0,0,43.0
78642,-0.04729288214702448,-0.009589931655275876,-9.810418023003836,0.01002333722287048,-6.334389064844141e-05,0.009994999166527754,0,0,0,42.87
78653,-0.04729288214702448,-0.009589931655275876,-9.810418023003836,0.020023337222870478,-6.334389064844141e-05,0.009994999166527754,0,0,0,43.18
78663,-0.037292882147024475,-0.019589931655275877,-9.810418023003836,2.3337222870478414e-05,-6.334389064844141e-05,0.019994999166527756,0,0,0,43.06
78672,-0.037292882147024475,-0.019589931655275877,-9.810418023003836,2.3337222870478414e-05,-0.010063343890648441,0.019994999166527756,0,0,0,43.06
78683,-0.037292882147024475,-0.009589931655275876,-9.810418023003836,2.3337222870478414e-05,-0.02006334389064844,0.019994999166527756,0,0,0,43.0
78692,-0.04729288214702448,-0.009589931655275876,-9.810418023003836,-0.019976662777129523,-0.03006334389064844,0.029994999166527755,0,0,0,42.87
78703,-0.05729288214702448,-0.009589931655275876,-9.810418023003836,-0.02997666277712952,-0.040063343890648445,0.03999499916652775,0,0,0,42.87
78713,-0.05729288214702448,-0.019589931655275877,-9.810418023003836,-0.039976662777129524,-0.040063343890648445,0.03999499916652775,0,0,0,42.93
78722,-0.04729288214702448,-0.019589931655275877,-9.810418023003836,-0.049976662777129525,-0.040063343890648445,0.03999499916652775,0,0,0,42.81
78733,-0.05729288214702448,-0.019589931655275877,-9.810418023003836,-0.05997666277712952,-0.040063343890648445,0.03999499916652775,0,0,0,42.56
78742,-0.05729288214702448,0.0004100683447241238,-9.820418023003835,-0.039976662777129524,-0.03006334389064844,0.029994999166527755,0,0,0,42.93
78753,-0.05729288214702448,0.0004100683447241238,-9.820418023003835,-0.019976662777129523,-0.02006334389064844,0.019994999166527756,0,0,0,43.06
78763,-0.05729288214702448,-0.019589931655275877,-9.820418023003835,-0.02997666277712952,-0.02006334389064844,0.049994999166527755,0,0,0,42.93
78772,-0.05729288214702448,-0.019589931655275877,-9.810418023003836,-0.039976662777129524,-0.02006334389064844,0.10999499916652776,0,0,0,43.06
78783,-0.06729288214702447,-0.019589931655275877,-9.810418023003836,-0.02997666277712952,-6.334389064844141e-05,0.16999499916652777,0,0,0,42.93
78792,-0.06729288214702447,0.010410068344724122,-9.810418023003836,-0.02997666277712952,-6.334389064844141e-05,0.12999499916652776,0,0,0,43.25
78803,-0.06729288214702447,0.010410068344724122,-9.820418023003835,-0.02997666277712952,0.01993665610935156,0.05999499916652775,0,0,0,43.06
78813,-0.05729288214702448,0.0004100683447241238,-9.820418023003835,-0.019976662777129523,0.029936656109351558,0.019994999166527756,0,0,0,42.93
78822,-0.05729288214702448,0.0004100683447241238,-9.810418023003836,2.3337222870478414e-05,0.04993665610935156,0.009994999166527754,0,0,0,43.0
78833,-0.05729288214702448,0.0004100683447241238,-9.800418023003836,0.01002333722287048,0.04993665610935156,0.029994999166527755,0,0,0,42.81
78842,-0.05729288214702448,0.0004100683447241238,-9.810418023003836,0.020023337222870478,0.04993665610935156,0.05999499916652775,0,0,0,42.93
78853,-0.13729288214702448,-0.09958993165527588,-9.800418023003836,0.07002333722287049,0.05993665610935155,1.2699949991665278,0,0,0,43.06
78863,-0.20729288214702446,-0.17958993165527587,-9.820418023003835,0.05002333722287048,0.01993665610935156,8.659994999166528,0,0,0,42.81
78872,-0.12729288214702447,-0.06958993165527588,-9.820418023003835,-0.009976662777129521,-0.02006334389064844,14.579994999166528,0,0,0,43.18
78883,0.012707117852975527,0.05041006834472413,-9.810418023003836,-0.039976662777129524,-0.05006334389064845,15.109994999166528,0,0,0,42.93
78892,0.07270711785297553,0.030410068344724126,-9.810418023003836,-0.05997666277712952,-0.05006334389064845,11.559994999166529,0,0,0,42.87
78903,-0.0072928821470244765,-0.03958993165527588,-9.800418023003836,-0.05997666277712952,-0.05006334389064845,8.059994999166529,0,0,0,43.06
78913,-0.05729288214702448,-0.06958993165527588,-9.820418023003835,-0.039976662777129524,-0.05006334389064845,7.579994999166527,0,0,0,43.25
78922,-0.06729288214702447,-0.03958993165527588,-9.820418023003835,-0.02997666277712952,-0.05006334389064845,9.169994999166528,0,0,0,42.87
78933,-0.05729288214702448,-0.009589931655275876,-9.810418023003836,-0.02997666277712952,-0.05006334389064845,11.269994999166528,0,0,0,42.93
78942,-0.02729288214702448,-0.009589931655275876,-9.810418023003836,-0.039976662777129524,-0.07006334389064844,13.189994999166528,0,0,0,42.81
78953,-0.05729288214702448,0.04041006834472412,-9.800418023003836,-0.039976662777129524,-0.07006334389064844,13.439994999166528,0,0,0,42.87
78963,-0.04729288214702448,0.07041006834472412,-9.800418023003836,-0.049976662777129525,-0.06006334389064844,12.569994999166529,0,0,0,42.87
78972,-0.07729288214702448,0.030410068344724126,-9.820418023003835,-0.049976662777129525,-0.06006334389064844,12.159994999166528,0,0,0,43.06
78983,-0.09729288214702447,0.06041006834472412,-9.810418023003836,-0.049976662777129525,-0.06006334389064844,12.099994999166528,0,0,0,42.75
78992,-0.07729288214702448,0.030410068344724126,-9.820418023003835,-0.049976662777129525,-0.06006334389064844,11.959994999166529,0,0,0,43.12
79003,-0.05729288214702448,-0.019589931655275877,-9.810418023003836,-0.06997666277712952,-0.07006334389064844,12.119994999166527,0,0,0,43.06
79013,-0.02729288214702448,-0.009589931655275876,-9.820418023003835,-0.06997666277712952,-0.07006334389064844,12.969994999166529,0,0,0,42.93
79022,-0.02729288214702448,0.030410068344724126,-9.820418023003835,-0.07997666277712952,-0.06006334389064844,14.299994999166529,0,0,0,43.0
79033,-0.01729288214702447,0.09041006834472412,-9.820418023003835,-0.07997666277712952,-0.06006334389064844,16.34999499916653,0,0,0,42.87
79042,-0.037292882147024475,0.16041006834472413,-9.820418023003835,-0.07997666277712952,-0.07006334389064844,18.289994999166527,0,0,0,43.06
79053,-0.10729288214702448,0.24041006834472414,-9.810418023003836,-0.06997666277712952,-0.07006334389064844,19.989994999166527,0,0,0,42.87
79063,-0.19729288214702448,0.32041006834472413,-9.800418023003836,-0.02997666277712952,-0.07006334389064844,20.429994999166528,0,0,0,43.06
79072,-0.14729288214702446,0.2704100683447241,-9.810418023003836,-0.009976662777129521,-0.08006334389064844,18.719994999166527,0,0,0,43.12
79083,-0.10729288214702448,0.16041006834472413,-9.820418023003835,-0.019976662777129523,-0.08006334389064844,16.469994999166527,0,0,0,43.0
79092,-0.15729288214702447,0.11041006834472412,-9.810418023003836,-0.02997666277712952,-0.09006334389064843,15.379994999166529,0,0,0,43.06
79103,-0.19729288214702448,0.13041006834472413,-9.810418023003836,-0.039976662777129524,-0.10006334389064844,15.819994999166529,0,0,0,43.06
79113,-0.2372928821470245,0.17041006834472414,-9.810418023003836,-0.05997666277712952,-0.12006334389064843,17.609994999166528,0,0,0,43.12
79122,-0.19729288214702448,0.15041006834472415,-9.810418023003836,-0.06997666277712952,-0.15006334389064843,20.589994999166528,0,0,0,42.93
79133,-0.11729288214702448,0.08041006834472413,-9.810418023003836,-0.07997666277712952,-0.17006334389064845,23.61999499916653,0,0,0,42.87
79142,-0.08729288214702448,-0.019589931655275877,-9.810418023003836,-0.08997666277712951,-0.17006334389064845,26.22999499916653,0,0,0,42.87
79153,-0.10729288214702448,-0.06958993165527588,-9.820418023003835,-0.09997666277712952,-0.18006334389064843,27.739994999166527,0,0,0,43.06
79163,-0.15729288214702447,-0.11958993165527589,-9.820418023003835,-0.11997666277712951,-0.18006334389064843,29.059994999166527,0,0,0,43.06
79172,-0.11729288214702448,-0.16958993165527586,-9.810418023003836,-0.12997666277712952,-0.17006334389064845,29.72999499916653,0,0,0,43.0
79183,-0.02729288214702448,-0.18958993165527588,-9.810418023003836,-0.10997666277712952,-0.15006334389064843,28.199994999166528,0,0,0,43.0
79192,0.10270711785297552,-0.10958993165527588,-9.800418023003836,-0.07997666277712952,-0.14006334389064845,24.699994999166528,0,0,0,42.93
79203,0.10270711785297552,0.05041006834472413,-9.800418023003836,-0.05997666277712952,-0.12006334389064843,21.68999499916653,0,0,0,42.87
79213,0.022707117852975522,0.18041006834472414,-9.810418023003836,-0.06997666277712952,-0.10006334389064844,20.91999499916653,0,0,0,43.06
79222,-0.02729288214702448,0.24041006834472414,-9.820418023003835,-0.08997666277712951,-0.09006334389064843,21.699994999166528,0,0,0,43.06
79233,-0.04729288214702448,0.17041006834472414,-9.820418023003835,-0.11997666277712951,-0.10006334389064844,23.15999499916653,0,0,0,42.81
79242,-0.08729288214702448,-0.03958993165527588,-9.820418023003835,-0.13997666277712953,-0.11006334389064844,23.95999499916653,0,0,0,43.06
79253,-0.12729288214702447,-0.22958993165527586,-9.820418023003835,-0.12997666277712952,-0.13006334389064844,23.59999499916653,0,0,0,43.0
79263,-0.21729288214702447,-0.2795899316552759,-9.820418023003835,-0.11997666277712951,-0.13006334389064844,22.679994999166528,0,0,0,42.93
79272,-0.22729288214702448,-0.2895899316552759,-9.820418023003835,-0.12997666277712952,-0.11006334389064844,21.54999499916653,0,0,0,43.06
79283,-0.13729288214702448,-0.20958993165527587,-9.820418023003835,-0.11997666277712951,-0.09006334389064843,20.04999499916653,0,0,0,43.06
79292,-0.08729288214702448,-0.10958993165527588,-9.810418023003836,-0.10997666277712952,-0.09006334389064843,18.739994999166527,0,0,0,42.93
79303,-0.07729288214702448,-0.07958993165527588,-9.810418023003836,-0.08997666277712951,-0.11006334389064844,18.039994999166527,0,0,0,42.87
79313,-0.04729288214702448,-0.08958993165527589,-9.810418023003836,-0.07997666277712952,-0.12006334389064843,17.969994999166527,0,0,0,43.06
79322,0.012707117852975527,-0.059589931655275874,-9.820418023003835,-0.07997666277712952,-0.12006334389064843,18.25999499916653,0,0,0,42.93
79333,0.03270711785297552,-0.029589931655275875,-9.820418023003835,-0.07997666277712952,-0.12006334389064843,19.02999499916653,0,0,0,43.06
79342,0.022707117852975522,-0.04958993165527588,-9.810418023003836,-0.08997666277712951,-0.12006334389064843,20.039994999166527,0,0,0,42.68
79353,-0.037292882147024475,-0.08958993165527589,-9.810418023003836,-0.09997666277712952,-0.10006334389064844,20.609994999166528,0,0,0,43.06
79363,-0.11729288214702448,-0.10958993165527588,-9.810418023003836,-0.09997666277712952,-0.07006334389064844,19.56999499916653,0,0,0,42.93
79372,-0.10729288214702448,-0.08958993165527589,-9.810418023003836,-0.06997666277712952,-0.08006334389064844,17.22999499916653,0,0,0,42.87
