Timestamp,Accelerometer_X,Accelerometer_Y,Accelerometer_Z,Gyroscope_X,Gyroscope_Y,Gyroscope_Z,Magnetometer_X,Magnetometer_Y,Magnetometer_Z,Abs_Pressure,Temperature
71113180,0.0017573777803061574,0.0005568608473600634,-9.81673230957373,8.536209925628577e-05,0.0007402108231113827,-0.000482366716106802,193044.1875,53704.1015625,307216.25,1010.087158203125,45.37892532348633
71120650,0.002614052987921056,0.005067241175061632,-9.825629137271484,-0.00028315761601001646,0.000586980319909898,-0.00032191491228473167,193044.1875,53704.1015625,307216.25,1010.087158203125,45.37892532348633
71142876,0.009280981517660436,-0.0002939656544862501,-9.816595934146484,-0.00047764997297812875,-6.739603212135153e-05,0.00010645156252253075,193044.1875,53704.1015625,307216.25,1010.087158203125,45.37892532348633
71153106,0.012766534484255132,-0.0015476301480470411,-9.810169122928222,-0.0004941349646254319,-0.00023276281807137894,-2.353583587278406e-05,193044.1875,53704.1015625,307216.25,1010.087158203125,45.37892532348633
71163194,0.014311956263410863,-0.001990723626726698,-9.818915270083984,-7.980690069993648e-05,-0.00031496364043358954,-3.113756721318493e-05,193044.1875,53704.1015625,307216.25,1010.087158203125,45.37892532348633
71172911,0.002606036163198766,-0.011270794289225172,-9.817219637149414,0.00043587415412153427,-0.00040203387560121956,0.00016727176879471374,193044.1875,53704.1015625,307216.25,1010.087158203125,45.37892532348633
71183141,0.007904591060507116,-0.011852647380941939,-9.817788980716308,0.0003195051655926866,-3.502592242820429e-05,1.2765604686543544e-05,193044.1875,53704.1015625,307216.25,1010.087158203125,45.37892532348633
71192938,0.0022600938039980534,-0.0008562093893447198,-9.810669814776768,-0.0002144758206721782,0.0003642417077020666,-0.0003582495136649124,200680.9375,61128.7109375,307666.28125,1010.07958984375,45.378387451171875
71203106,-0.0025108258765973446,0.002146665163858863,-9.80513373537003,0.00021196101196814185,7.27944070053211e-05,-0.00017116383416547996,200680.9375,61128.7109375,307666.28125,1010.07958984375,45.378387451171875
71213163,-0.0023323099654950497,0.000685628660543891,-9.806319152545322,0.00040499868673045045,7.449526396104307e-05,-0.00018436227575845641,200680.9375,61128.7109375,307666.28125,1010.07958984375,45.378387451171875
71222990,0.0009509746390543583,-0.0032863056579985894,-9.803986465167393,0.0003270951540745408,-5.9354561981845785e-05,-0.0004307624639474563,200680.9375,61128.7109375,307666.28125,1010.07958984375,45.378387451171875
71233632,-0.0009088616412915584,-0.00591585396923211,-9.805015479754795,0.00011175049921270316,3.31889540933928e-05,0.00012109425559204447,200680.9375,61128.7109375,307666.28125,1010.07958984375,45.378387451171875
71242904,-0.0004485200685300228,-0.000644918374196557,-9.812796508502354,-0.0004066604912676304,-0.0005737251840951928,-0.0003001366148234121,200680.9375,61128.7109375,307666.28125,1010.07958984375,45.378387451171875
71253137,0.00749558698713404,-0.0032950898925223626,-9.81358042879044,-0.00045290703083615894,-0.0003429214621615672,-0.0004010984429620914,200680.9375,61128.7109375,307666.28125,1010.07958984375,45.378387451171875
71263186,0.007821967120762885,-0.012778442196027306,-9.816862022113193,-0.00015800697538530598,-4.218220334277316e-05,1.7764379736337835e-05,200680.9375,61128.7109375,307666.28125,1010.07958984375,45.378387451171875
71272937,6.429594337564737e-05,-0.01165344922937539,-9.810367500018467,-0.00011197078375140349,-0.0003421156062000507,0.00016717524165899868,200680.9375,61128.7109375,307666.28125,1010.07958984375,45.378387451171875
71283191,0.0036283035236559513,-0.017632540158406762,-9.804654037188877,-0.0004237908603553116,-0.00043061428647032766,0.0002683967669148222,200680.9375,61128.7109375,307666.28125,1010.07958984375,45.378387451171875
71292950,0.009312536306100405,-0.004767979624398677,-9.80446517159579,-0.0004684217093229477,-0.00031985980512983306,0.000668521827151991,195907.96875,54658.69921875,304966.25,1010.069580078125,45.37516403198242
71303119,0.006468925363736666,0.0029675782297768905,-9.806283828517177,-0.00033757528226787195,-0.0001954601784731648,0.0009876686693821024,195907.96875,54658.69921875,304966.25,1010.069580078125,45.37516403198242
71313139,-0.002815429382605039,0.002771195826403172,-9.81001174142001,-0.00021921554808003799,-8.116303706484987e-05,0.0006162402590922933,195907.96875,54658.69921875,304966.25,1010.069580078125,45.37516403198242
71322986,-0.0011660422017998329,-0.004251460673936336,-9.813239928981044,-0.00020667035651357815,1.033517128378944e-05,-0.00010867023740895876,195907.96875,54658.69921875,304966.25,1010.069580078125,45.37516403198242
71333554,0.0001178418466620812,-0.0039979621197065995,-9.817496177455165,-0.00040065885341690824,-0.00044347605489603384,6.61146644921895e-05,195907.96875,54658.69921875,304966.25,1010.069580078125,45.37516403198242
71342875,-0.000300679617208921,0.003925111946932347,-9.821315643092372,-0.0006925164890192632,-0.00026222073120008363,0.00037048400770406387,195907.96875,54658.69921875,304966.25,1010.069580078125,45.37516403198242
71353119,0.002027746028619326,-0.001608546021111934,-9.815606948634365,-0.0005627957690224235,-0.00017685670445500082,0.00041146554792764745,195907.96875,54658.69921875,304966.25,1010.069580078125,45.37516403198242
71363149,-0.0001361782482094398,-0.0055567055369696305,-9.819915649195888,8.932769187295839e-05,-0.00041632430565952463,4.736730113624743e-05,195907.96875,54658.69921875,304966.25,1010.069580078125,45.37516403198242
71373002,0.0035394241282515893,-0.0072363495255789445,-9.818989631434658,0.0004214733670748587,-0.0002769017219165261,-0.0001324221644830037,195907.96875,54658.69921875,304966.25,1010.069580078125,45.37516403198242
71383198,0.00571450192423395,-0.006562355103620021,-9.815648910304287,3.6567424009908284e-05,0.00013117846629173355,-0.0002485237470176149,195907.96875,54658.69921875,304966.25,1010.069580078125,45.37516403198242
71392848,0.005799991305466712,-0.0036690270821013726,-9.812768851947178,-0.0001770303085375964,0.00027729308289000006,-0.0003102598001711778,196014.03125,60068.06640625,303316.25,1010.1085205078125,45.378387451171875
71403107,-0.003154086653593957,0.0007027053912720405,-9.812029754351963,-6.869922863721525e-05,-0.000277825375688363,-0.00029401439125619454,196014.03125,60068.06640625,303316.25,1010.1085205078125,45.378387451171875
71413139,0.002279390807744086,-0.003971893183366326,-9.808125411700596,0.0006000229598559052,-0.00047376403295910745,-0.0002920708665621243,196014.03125,60068.06640625,303316.25,1010.1085205078125,45.378387451171875
71422970,0.001792197342511237,-0.006017479888574151,-9.810825263690342,0.00028510155725065475,-0.0007322656520596781,-0.0002774737821888886,196014.03125,60068.06640625,303316.25,1010.1085205078125,45.378387451171875
71433638,-0.00013176608503240317,-0.008520912222043542,-9.804543410968174,-6.561479227330108e-06,-0.00021967311391617,-2.8966214740347093e-05,196014.03125,60068.06640625,303316.25,1010.1085205078125,45.378387451171875
71442861,0.005805467482205451,-0.004988353542462853,-9.8064631573671,-0.00021805025126546765,-0.00025774465671983375,-0.00041875445633165163,196014.03125,60068.06640625,303316.25,1010.1085205078125,45.378387451171875
71453101,0.0038675193148813847,-0.002128619543687371,-9.809842025470127,0.00017369574679300046,-9.623794090711339e-05,-0.0005453530920200757,196014.03125,60068.06640625,303316.25,1010.1085205078125,45.378387451171875
71463173,0.0024739850717745426,-0.010493535391465691,-9.813347732257236,0.00021689120084751254,1.2003111750718068e-05,-0.00047555320081270856,196014.03125,60068.06640625,303316.25,1010.1085205078125,45.378387451171875
71472907,-0.0014799560946263668,-0.007553037099019555,-9.810413276385654,7.942430719971513e-05,-0.0003562820848497638,-0.0003147192636967413,196014.03125,60068.06640625,303316.25,1010.1085205078125,45.378387451171875
71483133,0.002183747704621375,-0.00841318427719262,-9.80568305177628,-0.00030529580790776903,-0.0004897617682769039,-0.00046065058442733807,196014.03125,60068.06640625,303316.25,1010.1085205078125,45.378387451171875
71492903,0.007308741359890902,-0.008118996314608218,-9.80613979803054,-0.0008308842491571919,-0.0002667598699590771,-0.0004072958292527795,202165.859375,57522.46875,305116.28125,1010.0623168945312,45.37623977661133
71503148,0.012839195578278506,-0.007283376447760226,-9.80706581579177,-0.0006800498061095492,-0.00046710030696341977,-0.0005623442159122527,202165.859375,57522.46875,305116.28125,1010.0623168945312,45.37623977661133
71513170,0.0020922918607606533,-0.0052029284759393946,-9.818342060908957,0.0002767562570768281,-0.0005957712517956851,-0.0004945321163250804,202165.859375,57522.46875,305116.28125,1010.0623168945312,45.37623977661133
71522926,0.006094356327237094,-0.000948326580130221,-9.814932675227805,0.0004423507077406033,-0.00042313821435893163,-0.00039950752780723575,202165.859375,57522.46875,305116.28125,1010.0623168945312,45.37623977661133
71533622,0.00999468311566254,0.004159135826028226,-9.80966362462966,3.1174810971937306e-06,-0.0003538553526996283,0.00021608331898451127,202165.859375,57522.46875,305116.28125,1010.0623168945312,45.37623977661133
71542951,0.010111478417099917,0.007901264436639188,-9.805593342647239,-0.00020845795851006516,-0.00012934119499188358,0.0008019132617772817,202165.859375,57522.46875,305116.28125,1010.0623168945312,45.37623977661133
71553119,0.002372366635979617,0.0032291990594037756,-9.811185688838645,-7.143406517958611e-05,-0.0003480154508397563,0.00039283222194344547,202165.859375,57522.46875,305116.28125,1010.0623168945312,45.37623977661133
71563197,-0.007620881051837003,0.0038976576999791845,-9.817344517573996,0.0003252952762666031,-0.0006275670992581753,0.0003594274565256461,202165.859375,57522.46875,305116.28125,1010.0623168945312,45.37623977661133
71572937,-0.006719114930449521,0.0004107561782964453,-9.816301197871848,0.00017653744972970925,-0.0005711745860426335,0.00010350144638496261,202165.859375,57522.46875,305116.28125,1010.0623168945312,45.37623977661133
71583130,-0.00553547099333862,-0.0083905476256243,-9.813696713313742,-0.0001362767264111095,-0.00014246286568233603,0.0004227636780268773,202165.859375,57522.46875,305116.28125,1010.0623168945312,45.37623977661133
71592899,-0.0015521285106556704,-0.010072066949345704,-9.807132546910204,-0.0004257292374307102,0.0003190102538426845,0.00030613273614757235,194741.234375,56673.9375,305266.28125,1010.0935668945312,45.38215255737305
71603139,0.00040034828883239726,-1.938598010742254e-05,-9.812356774815477,-0.00031671676591875017,0.0005129763990042238,0.0003395861922737258,194741.234375,56673.9375,305266.28125,1010.0935668945312,45.38215255737305
71613136,-6.152065295150777e-05,0.00407601936008728,-9.813142602452196,-0.0002286358565827644,0.00038061404073214816,0.0006206500175150158,194741.234375,56673.9375,305266.28125,1010.0935668945312,45.38215255737305
71622982,0.004708206934748382,-0.0022331918940325934,-9.814629380711473,-0.00040523443643840015,0.0003983591700305669,0.0004341883241405758,194741.234375,56673.9375,305266.28125,1010.0935668945312,45.38215255737305
71633535,0.006439230127154083,-0.009860097931363221,-9.813411538609422,-0.0008414817337682283,0.0003279141633172958,-0.0002417187433483032,194741.234375,56673.9375,305266.28125,1010.0935668945312,45.38215255737305
71642919,0.011752693636236877,-0.00574502305839264,-9.80568963766948,-0.0007140750593310034,-5.86007492547197e-06,-3.077223024125671e-05,194741.234375,56673.9375,305266.28125,1010.0935668945312,45.38215255737305
71653128,0.0067877906392199705,-0.0005713547930499274,-9.807975595005907,-0.00012710057384472326,0.00018341512939496624,9.051314467536757e-05,194741.234375,56673.9375,305266.28125,1010.0935668945312,45.38215255737305
71663207,-0.00017167003649642965,-0.0004936899409075934,-9.818312470921434,6.980678987085834e-05,8.597451549558627e-05,5.669374426100875e-05,194741.234375,56673.9375,305266.28125,1010.0935668945312,45.38215255737305
71672940,-0.003010251836957245,-0.005653805600144501,-9.806867425450243,0.0003708338419171238,0.0002221830613778411,0.00019127709632551886,194741.234375,56673.9375,305266.28125,1010.0935668945312,45.38215255737305
71683149,0.0023607674072367857,-0.0064329724178096015,-9.804226701268114,0.00012356884795801729,-0.00011665106150775956,-7.51158158553717e-05,194741.234375,56673.9375,305266.28125,1010.0935668945312,45.38215255737305
71692930,0.020029200295620164,-0.002790929096281758,-9.808054763225451,-0.00022020861604210226,-0.0002818148175418346,-0.00041803283193074525,196226.1875,58795.27734375,312016.28125,1010.0859375,45.37677764892578
71703092,0.01479881448548337,0.007034829539716014,-9.812323409465685,-0.00029410792728845267,-4.321872226518281e-06,-1.5408404124159225e-05,196226.1875,58795.27734375,312016.28125,1010.0859375,45.37677764892578
71713177,0.003747360835485658,0.010689555389344463,-9.812254744914904,-0.00021505633583251624,6.37493969708712e-05,5.1199451718289546e-05,196226.1875,58795.27734375,312016.28125,1010.0859375,45.37677764892578
71722983,0.004044259021692476,-0.005753093677103749,-9.816454726604357,1.1295922490942717e-05,-3.921641906965215e-05,0.0003260819580646196,196226.1875,58795.27734375,312016.28125,1010.0859375,45.37677764892578
71733577,-0.0010478700895975024,-0.012552210407793751,-9.821354705242053,5.051130040123822e-05,-0.0002240230358136787,3.016289747394263e-05,196226.1875,58795.27734375,312016.28125,1010.0859375,45.37677764892578
71742877,-0.004164917339868346,-0.005642385500014058,-9.814988929180041,-0.0006394597420464852,-0.00013213250464725115,-0.00012298850151636065,196226.1875,58795.27734375,312016.28125,1010.0859375,45.37677764892578
71753097,-0.003995379378385344,-0.0029201817684771925,-9.808561164287463,-0.0004756219112775871,-0.00014935540618063806,2.8331699013520173e-05,196226.1875,58795.27734375,312016.28125,1010.0859375,45.37677764892578
71763197,-0.0008394102950761706,-0.010855415182650319,-9.808276015666857,-0.00016056545234710215,-0.0004727240564232661,-0.0001077904230441934,196226.1875,58795.27734375,312016.28125,1010.0859375,45.37677764892578
71772956,0.002403223941736421,-0.00953044118219637,-9.805955726055041,0.00029656918388832124,-6.546550572858814e-05,0.0003206552432857418,196226.1875,58795.27734375,312016.28125,1010.0859375,45.37677764892578
71783141,0.010153049657755098,-0.010203504281580678,-9.815769034770861,0.00048058551522012563,-0.0003256919997209652,0.00027598060887613907,196226.1875,58795.27734375,312016.28125,1010.0859375,45.37677764892578
71792911,0.004167601709645474,-0.003104856527262001,-9.823596754643779,0.00038995168140877265,0.00020111817105698988,1.3195244294977176e-06,200893.0625,59855.91796875,315766.28125,1010.1197509765625,45.38322830200195
71803103,-0.0020399836251323578,-0.008887974834852486,-9.812829771611552,-3.366690295502142e-05,0.000746911733253185,-5.9886511250013125e-06,200893.0625,59855.91796875,315766.28125,1010.1197509765625,45.38322830200195
71813159,0.006305642669480527,-0.012415176546983986,-9.802840986821513,-0.00039161090537186485,-0.00013336179596608148,0.00012534725142665341,200893.0625,59855.91796875,315766.28125,1010.1197509765625,45.38322830200195
71822984,0.006038747971337521,-0.010928249276094704,-9.808349409673076,-0.0004418621029074095,-0.0006393986480959912,-0.00017487295512786,200893.0625,59855.91796875,315766.28125,1010.1197509765625,45.38322830200195
71833601,0.0018817561319286469,-0.014556674576216011,-9.809406080815654,-0.00030981825695585233,-0.0006526035216354985,-0.000192770966847668,200893.0625,59855.91796875,315766.28125,1010.1197509765625,45.38322830200195
71842900,0.003184400742333615,-0.01031480572264698,-9.807943144414287,8.08218464769632e-05,-0.00043725482134122744,-0.0003309219896860966,200893.0625,59855.91796875,315766.28125,1010.1197509765625,45.38322830200195
71853121,0.009104013686459744,0.0008026079173752976,-9.806519308659892,9.399808912325877e-05,0.00010195433390818194,-0.0003385862506062338,200893.0625,59855.91796875,315766.28125,1010.1197509765625,45.38322830200195
71863170,0.002850570028107846,-0.003130493975096016,-9.809053221318583,-0.0003228744099217258,0.0004945480537882786,-0.00022527424111707002,200893.0625,59855.91796875,315766.28125,1010.1197509765625,45.38322830200195
71872949,0.005979553108494962,-0.009514643168859749,-9.813036718938212,-6.648144337327924e-05,0.0004298906930072944,-1.88340195987919e-05,200893.0625,59855.91796875,315766.28125,1010.1197509765625,45.38322830200195
71883213,0.010766521339696133,-0.0061177372102072525,-9.80623606738792,-0.00021722638486630988,0.0005561117938070338,5.3793017699142395e-05,200893.0625,59855.91796875,315766.28125,1010.1197509765625,45.38322830200195
71892885,0.008623724131764376,-0.007137315265738131,-9.807511181697532,8.399818281371735e-05,0.0004610834486411305,0.0006088760526762604,193786.65625,56992.13671875,308416.25,1010.0763549804688,45.37623977661133
71903109,0.006851983516396487,-0.0066742989345423,-9.811784596309348,-1.1982326472446958e-05,-0.00023700046116939023,0.00029097684072612595,193786.65625,56992.13671875,308416.25,1010.0763549804688,45.37623977661133
71913208,0.006485228686512912,0.004777824588216184,-9.812249989375754,-9.330572837303736e-05,-0.0005169678578058837,0.00039048277157407996,193786.65625,56992.13671875,308416.25,1010.0763549804688,45.37623977661133
71922952,0.007256617098034823,-0.001043008558355929,-9.816304058894797,-0.00014570443935032346,0.0003261958383118154,0.00024463049684700366,193786.65625,56992.13671875,308416.25,1010.0763549804688,45.37623977661133
71933565,0.0043446023752107266,-0.004168094985090853,-9.819275708064719,-0.00019381213977272965,0.0004327310208791287,-0.00017365566255475584,193786.65625,56992.13671875,308416.25,1010.0763549804688,45.37623977661133
71942879,0.005398233680905307,-0.004572914831244113,-9.81706222997634,-0.0007996652105105237,-8.968536971589759e-05,-0.00020421023164826635,193786.65625,56992.13671875,308416.25,1010.0763549804688,45.37623977661133
71953110,-0.0017247076342687961,0.0031129998044141516,-9.811871380672141,-0.00030326006279598333,-0.000431673436509317,-0.00023697916568207744,193786.65625,56992.13671875,308416.25,1010.0763549804688,45.37623977661133
71963170,-0.0027975763390646335,0.004997020669377683,-9.818234295711203,0.00011874371804491274,-0.00016134121037250128,-6.277155280995372e-05,193786.65625,56992.13671875,308416.25,1010.0763549804688,45.37623977661133
71972964,-0.00208281979065994,-0.006971271626555087,-9.812847943172141,0.00024035603811693035,5.572266272620835e-07,-0.0002604753865017295,193786.65625,56992.13671875,308416.25,1010.0763549804688,45.37623977661133
71983146,-0.0011339734504804966,-0.01106991796930945,-9.820081562862082,-5.731395620774821e-05,0.00029919810654608324,-0.0005772539336322546,193786.65625,56992.13671875,308416.25,1010.0763549804688,45.37623977661133
71992967,0.0032759536981084025,-0.004607083765134412,-9.819448335948419,0.00011910751646266801,-0.00017939999899792107,3.8873832488989235e-06,193892.71875,55401.15234375,305866.28125,1010.0631713867188,45.375701904296875
72003160,0.00028142379517337446,0.0045615336622146785,-9.810773714366388,8.378416833349986e-05,-0.0005381236486948337,7.79358589022977e-05,193892.71875,55401.15234375,305866.28125,1010.0631713867188,45.375701904296875
72013157,0.0014445860862233317,0.0070645636643318355,-9.809259279551934,-5.020176621999342e-05,0.0002885748754841034,-8.902962228259093e-05,193892.71875,55401.15234375,305866.28125,1010.0631713867188,45.375701904296875
72022907,0.002636984455535618,0.0032566836799530208,-9.808379038157891,-5.742794991763292e-05,0.0005925319920413886,-0.00029928899395255393,193892.71875,55401.15234375,305866.28125,1010.0631713867188,45.375701904296875
72033533,0.003568076062152592,-0.0003971853529067815,-9.80654321509881,0.0003175024933682151,0.0006966216670469139,-0.0003158317858071441,193892.71875,55401.15234375,305866.28125,1010.0631713867188,45.375701904296875
72042958,-0.0025088931441805684,0.00497722390545885,-9.804593904796075,-0.0003166387729777627,0.0003277991846323703,-0.00023650295126227683,193892.71875,55401.15234375,305866.28125,1010.0631713867188,45.375701904296875
72053099,-0.004382103216697963,0.00689869138850252,-9.800712450328302,-0.0003243175858131282,-0.00018931137394358026,-0.00011856564462160712,193892.71875,55401.15234375,305866.28125,1010.0631713867188,45.375701904296875
72063234,-0.001569538843681606,0.003434566291704577,-9.807791574778985,0.00010456727187031431,-0.0005016093427195455,0.00026084374174732694,193892.71875,55401.15234375,305866.28125,1010.0631713867188,45.375701904296875
72072898,0.004593343007514683,-0.00982135769473036,-9.81216893989129,0.0003141239461058147,-6.434091567027005e-05,0.0006224125237020289,193892.71875,55401.15234375,305866.28125,1010.0631713867188,45.375701904296875
72083159,0.0019897897719838298,-0.011014903453454572,-9.805969103160333,0.0003784241737832643,2.1034465206669697e-05,0.0008963847786469942,193892.71875,55401.15234375,305866.28125,1010.0631713867188,45.375701904296875
72092949,0.00033890641097489294,-0.006698896305249669,-9.810274090846326,0.0002397326527735083,0.00036654095565612395,4.919526425226431e-05,198029.296875,56143.62890625,301516.28125,1010.0941162109375,45.381072998046875
72103089,-0.0011877250039153964,-0.003840294794724919,-9.810760464747693,0.0004311998557405411,1.6608532678251756e-05,-1.162114760802288e-05,198029.296875,56143.62890625,301516.28125,1010.0941162109375,45.381072998046875
72113175,0.0033530462420410245,-0.005549666599915959,-9.811659779628064,0.00034512938080484556,2.3816896646199417e-05,-7.292533966676493e-05,198029.296875,56143.62890625,301516.28125,1010.0941162109375,45.381072998046875
72122925,0.0038189235961860746,-0.010033388750241734,-9.810175862391736,0.0002021634057037397,-0.0003763571341550819,-0.00047861195609868665,198029.296875,56143.62890625,301516.28125,1010.0941162109375,45.381072998046875
72133589,-0.007018966611581412,-0.005774152593301274,-9.814552273829724,-0.00037326514640693975,-0.00026622591140036504,-0.00036513967181519766,198029.296875,56143.62890625,301516.28125,1010.0941162109375,45.381072998046875
72142957,-0.0081043075882965,-0.0045007664129004255,-9.809027638514783,-0.000448768893618709,4.054285345776905e-05,-8.563571002298195e-05,198029.296875,56143.62890625,301516.28125,1010.0941162109375,45.381072998046875
72153153,-0.009063242014604178,-0.00931507082431171,-9.801069226344373,-0.0003638578570807488,-0.0002668658318725325,-6.384424607233305e-05,198029.296875,56143.62890625,301516.28125,1010.0941162109375,45.381072998046875
72163175,-0.008019490178781119,-0.0028991002008185163,-9.805590596278455,-0.00019277512248476458,-5.631887070191126e-05,0.00027919553129038613,198029.296875,56143.62890625,301516.28125,1010.0941162109375,45.381072998046875
72172959,0.0056376550233787626,0.0020784985855355487,-9.808664288600232,9.782503846696156e-05,-0.0001011677752103101,-0.00027520577980169256,198029.296875,56143.62890625,301516.28125,1010.0941162109375,45.381072998046875
72183197,0.008731471363348398,0.005765902681662105,-9.814114537318494,0.0004633164856223254,-6.808560756322961e-05,-0.0001379423073768725,198029.296875,56143.62890625,301516.28125,1010.0941162109375,45.381072998046875
72192931,0.013570712868017587,0.0011341523960366473,-9.811327900965955,0.0001564289043763517,-0.000543463499707254,0.00038741891064717274,195377.65625,57522.484375,302716.25,1010.1155395507812,45.381072998046875
72203108,0.011678004626078042,-0.0018317225739226117,-9.808904614527966,-3.410635892391045e-05,-0.0007070157054840497,0.00023642182084302257,195377.65625,57522.484375,302716.25,1010.1155395507812,45.381072998046875
72213247,0.0033316183722442716,-0.003366765694306828,-9.812797513087537,-0.00014727046138245103,-0.000461816807000982,0.00023019424868550922,195377.65625,57522.484375,302716.25,1010.1155395507812,45.381072998046875
72222944,0.002237739030165109,-0.010504973249124028,-9.805341687281873,9.05192639784752e-05,-6.18458991084158e-05,-0.0001592343787007143,195377.65625,57522.484375,302716.25,1010.1155395507812,45.381072998046875
72233569,-0.0029182564580017,-0.01742267342059467,-9.806553807338025,0.0003502118991328268,0.00016479710284332712,-9.016761298255224e-05,195377.65625,57522.484375,302716.25,1010.1155395507812,45.381072998046875
72242939,0.0018498990571922391,-0.013696101622270085,-9.81029697902992,0.0007566963097652285,-0.0004204444605420254,-9.470667548441489e-05,195377.65625,57522.484375,302716.25,1010.1155395507812,45.381072998046875
72253106,-0.0019204225503974826,-0.009164114610837437,-9.815183606227185,0.000703366916497597,-0.00020685344970840062,-0.00010680691313893695,195377.65625,57522.484375,302716.25,1010.1155395507812,45.381072998046875
72263165,0.0005704704559272855,-0.008936544077084996,-9.812422719081189,-0.00011663721735925836,-0.0005064715998741708,0.00013601045891562316,195377.65625,57522.484375,302716.25,1010.1155395507812,45.381072998046875
72272919,0.007876599196237954,-0.011217606382058598,-9.816380467494275,-0.0006465157136680694,-0.0002842584701283745,0.0003391352921215708,195377.65625,57522.484375,302716.25,1010.1155395507812,45.381072998046875
72283161,0.011088998976988229,-0.011875894980119206,-9.817062344630505,-0.0005211508766641976,0.00027411798764663715,0.00044431439626066785,195377.65625,57522.484375,302716.25,1010.1155395507812,45.381072998046875
72292938,0.007318564002793515,0.0013754830594727707,-9.807609358403544,-0.000624411630288025,0.00025291286113697693,0.0005940850537202707,196226.171875,59643.796875,302566.25,1010.0955200195312,45.38322830200195
72303149,-0.0026877743551319,0.002894865059442253,-9.804483213994365,-0.00028770967766854685,0.0004268375847770612,0.0005423759871094874,196226.171875,59643.796875,302566.25,1010.0955200195312,45.38322830200195
72313139,-0.007064506168085849,0.0023242623444268418,-9.803105154607158,0.00019332732334055233,-0.00020423425336575478,5.5689685226177274e-05,196226.171875,59643.796875,302566.25,1010.0955200195312,45.38322830200195
72322921,0.002014369015973294,-0.004970236039572029,-9.807191649052958,-0.00022781998997766298,-0.0008700943511628766,-0.000663099082472975,196226.171875,59643.796875,302566.25,1010.0955200195312,45.38322830200195
72333610,0.005885415022652829,-0.013486145353727608,-9.815355101201396,-0.00032241812006782514,-0.00033851627846688374,-0.0008139552951857993,196226.171875,59643.796875,302566.25,1010.0955200195312,45.38322830200195
72342905,0.005662605409901822,-0.0034178926710417556,-9.813834944341044,-0.00012092538238016662,-7.837414920304313e-05,-0.0009659678612903306,196226.171875,59643.796875,302566.25,1010.0955200195312,45.38322830200195
72353095,-0.00532378977032355,0.0026081369157502365,-9.811359205815654,-0.00013671390481272486,6.57834822361137e-05,-0.0009579711764187166,196226.171875,59643.796875,302566.25,1010.0955200195312,45.38322830200195
72363218,-0.008113972599226749,-0.00011556438248661038,-9.814993658635478,-3.186002051757189e-05,2.4833839810710703e-05,-0.0006988706004873464,196226.171875,59643.796875,302566.25,1010.0955200195312,45.38322830200195
72372909,0.0010728540471012238,-0.006680315649919777,-9.811320105168681,0.00029257425192531425,-3.851666738953138e-06,-0.0002631592210915485,196226.171875,59643.796875,302566.25,1010.0955200195312,45.38322830200195
72383136,0.004426010196488583,-0.012035263991766243,-9.810637274358134,0.000557289567932228,0.0006674089160098474,9.141668165590748e-05,196226.171875,59643.796875,302566.25,1010.0955200195312,45.38322830200195
72392912,0.005714095014194065,-0.004293712419123352,-9.81685722807675,0.0007327914901117463,0.0004474134376267168,0.00011024463264817409,197923.21875,62613.640625,309616.28125,1010.0807495117188,45.37946319580078
72403108,-0.0018603142322506372,0.011882190960793793,-9.815290341174894,-0.00015331258681438448,4.4004588829745644e-05,2.1173858382609115e-05,197923.21875,62613.640625,309616.28125,1010.0807495117188,45.37946319580078
72413144,0.0014329690514598425,0.009926204937844574,-9.81403339842587,-0.00037212271480423914,-0.00029135218474602223,-0.0001877519466719959,197923.21875,62613.640625,309616.28125,1010.0807495117188,45.37946319580078
72422965,0.007605231183627659,-0.0027044439731547243,-9.81603420714169,-7.821069437962541e-05,8.159583643470997e-06,4.097301961934231e-05,197923.21875,62613.640625,309616.28125,1010.0807495117188,45.37946319580078
72433559,0.0005946818767581519,-0.006223703366369904,-9.819729695117765,-5.640319603738425e-05,0.0006401475594373617,0.00022415016564678904,197923.21875,62613.640625,309616.28125,1010.0807495117188,45.37946319580078
72442888,0.0035201150952373084,0.00028310473576098616,-9.821729550159269,-0.00015975428312852563,0.00016739326119369,0.00013762915068269745,197923.21875,62613.640625,309616.28125,1010.0807495117188,45.37946319580078
72453133,0.005654505270579868,0.0027963867367795103,-9.81478203276425,0.0002296600397250284,0.00017189358649721473,0.00019883346885450105,197923.21875,62613.640625,309616.28125,1010.0807495117188,45.37946319580078
72463169,0.008356696742633396,-0.0024499172388026125,-9.810263523853116,0.0009188962832132955,-0.00016909524029523962,0.00048653098155824505,197923.21875,62613.640625,309616.28125,1010.0807495117188,45.37946319580078
72472913,6.966181383472048e-05,-0.005471634310335816,-9.818466076648527,0.0009117554837877531,-0.0007491736713802245,2.72464744708132e-05,197923.21875,62613.640625,309616.28125,1010.0807495117188,45.37946319580078
72483207,-0.005943053585430569,-0.007117996555418671,-9.814980397022062,0.0004099884209728469,-0.0003713085997389433,-0.0005220278039846007,197923.21875,62613.640625,309616.28125,1010.0807495117188,45.37946319580078
72492971,0.011110870882545143,0.0006578522509093077,-9.813950492503642,6.5662667944436925e-06,-3.2837480032653354e-05,-0.00024591773964403527,192513.875,58052.80859375,306166.28125,1010.0757446289062,45.38161087036133
72503103,-0.002908238426174492,-9.409014525463277e-05,-9.812456084849833,-0.0004791338226900095,0.00023112794667871223,-0.0003174984651332195,192513.875,58052.80859375,306166.28125,1010.0757446289062,45.38161087036133
72513173,0.006049087986026436,-0.0008758423143868654,-9.811640693309306,0.00016030940486559328,-6.19255945163294e-06,-0.00028158797632841723,192513.875,58052.80859375,306166.28125,1010.0757446289062,45.38161087036133
72522966,0.006662121757541328,-0.0005526286775117129,-9.811682654979228,-0.0001974816635160366,0.0005514025041313611,-3.56058064562674e-05,192513.875,58052.80859375,306166.28125,1010.0757446289062,45.38161087036133
72533548,0.0013010937419277724,-0.001116697233343622,-9.808132125499247,0.00010232348603637573,-0.0002025099157642804,0.0003441033420904134,192513.875,58052.80859375,306166.28125,1010.0757446289062,45.38161087036133
72542864,0.008177592202697426,0.0005724760478491575,-9.812161399486063,-0.0005522522490613753,0.0008807789935210489,-0.00011656358239179807,192513.875,58052.80859375,306166.28125,1010.0757446289062,45.38161087036133
72553088,0.008356391235862404,0.002464126307343939,-9.819594337108134,-0.0003558369874630714,0.0002492662978304319,-0.00018618064333623605,192513.875,58052.80859375,306166.28125,1010.0757446289062,45.38161087036133
72563215,0.0014954346862179335,0.0010896208470816404,-9.816229774119853,0.00014681328929470536,-9.805441288587152e-05,-0.0005450303489988144,192513.875,58052.80859375,306166.28125,1010.0757446289062,45.38161087036133
72572941,-0.003177413001980156,-0.003692005317831537,-9.811018897655009,-2.3318235715514418e-05,0.00029571670973130987,-0.0005719516250019367,192513.875,58052.80859375,306166.28125,1010.0757446289062,45.38161087036133
72583157,-0.0009960171136516038,-0.005278494697237512,-9.807100249888896,-0.0007124703491248781,0.0003148261101862185,-0.0007703958019328709,192513.875,58052.80859375,306166.28125,1010.0757446289062,45.38161087036133
72592943,-0.002944628448306119,-0.008010687224470736,-9.814246029719992,-0.00035914736261862673,0.0005606601672807129,-0.000813308816039443,198877.8125,60386.25390625,304516.28125,1010.1005859375,45.37623977661133
72603153,-0.007051306516943967,-0.007252225570284487,-9.813392491206809,-7.954836226805456e-05,0.0002582224452962519,-0.0005895186370326877,198877.8125,60386.25390625,304516.28125,1010.1005859375,45.37623977661133
72613173,-0.00831312939625839,-0.005605773918234469,-9.815401882991477,-7.062731609427247e-05,0.0006165233400279076,2.2757430808179047e-05,198877.8125,60386.25390625,304516.28125,1010.1005859375,45.37623977661133
72622963,-0.0032032231996641514,-0.004444548778139712,-9.812051625117942,0.0002239553602664604,-0.00023928967388566792,0.0003021067930530086,198877.8125,60386.25390625,304516.28125,1010.1005859375,45.37623977661133
72633564,-0.00209180519085983,-0.005881400696837069,-9.809264988765403,9.921184638709418e-05,0.00011733720489790454,0.0008596962978043854,198877.8125,60386.25390625,304516.28125,1010.1005859375,45.37623977661133
72642860,0.005481449215592349,-0.0029523837490907923,-9.810726017818137,0.00022042812153425656,0.0003409354732466282,0.0005725192275275737,198877.8125,60386.25390625,304516.28125,1010.1005859375,45.37623977661133
72653106,0.00900315239924332,-0.004459300927721621,-9.810464711055442,0.00067817671762508,0.00018730415209209338,9.440488410464298e-05,198877.8125,60386.25390625,304516.28125,1010.1005859375,45.37623977661133
72663202,0.0073211540271653774,-0.011097730986677767,-9.81396278844802,0.0009903471388640686,0.0003185500874278487,-0.00011928569093297425,198877.8125,60386.25390625,304516.28125,1010.1005859375,45.37623977661133
72672944,0.01072509333390137,-0.011923650197588564,-9.811340184077903,0.0007410017012405082,0.0003779527807237001,3.807858937934783e-05,198877.8125,60386.25390625,304516.28125,1010.1005859375,45.37623977661133
72683139,0.005276200621308291,-0.0066147687955728784,-9.807556958064719,-0.00019251467645905324,-0.0001393973879830982,0.0004139025802868679,198877.8125,60386.25390625,304516.28125,1010.1005859375,45.37623977661133
72692956,0.0006727834412627587,-0.0011109366442045854,-9.814155456324794,-0.0007027356587998752,-0.0001219866053346931,0.00015959007430471628,193362.390625,66113.828125,303166.25,1010.0733642578125,45.37516403198242
72703110,-0.004866775386614286,-0.002418714704640834,-9.813248512049892,-0.0005098636139366959,0.0003997120593354185,2.8529657698228572e-05,193362.390625,66113.828125,303166.25,1010.0733642578125,45.37516403198242
72713168,0.0016519685456328759,-0.00234519237531039,-9.81287467171786,-0.0001473703124277477,0.00014571588781253295,-4.9996362235404934e-05,193362.390625,66113.828125,303166.25,1010.0733642578125,45.37516403198242
72722917,0.006351683027463473,-0.007143858018048732,-9.807350990077236,9.359165041742876e-05,0.0003781564237229605,8.551220014457739e-05,193362.390625,66113.828125,303166.25,1010.0733642578125,45.37516403198242
72733598,0.0027644370863013634,-0.011365178170331447,-9.803987380763271,-0.00016810555471537605,0.00018909922164455847,-0.00024534275655635485,193362.390625,66113.828125,303166.25,1010.0733642578125,45.37516403198242
72742903,-0.002774965279383146,-0.0012247666145643876,-9.812249061366298,-0.0003227929229099487,-0.000132254106573252,-5.005308560096511e-05,193362.390625,66113.828125,303166.25,1010.0733642578125,45.37516403198242
72753138,-0.005192559473795377,-0.00019734645140978557,-9.815324661036708,0.00024101902444882348,0.00016827898162008123,-0.00015250523358584234,193362.390625,66113.828125,303166.25,1010.0733642578125,45.37516403198242
72763168,-0.007012706511301481,-0.0024546712066015886,-9.810445663233974,0.0006150788575693782,-0.00013297662826372916,-4.506569314283171e-05,193362.390625,66113.828125,303166.25,1010.0733642578125,45.37516403198242
72772942,-0.003090676181597196,-0.0016101553465208696,-9.8139523236954,0.0006104089733496125,-0.00015978914689041349,8.337941324104703e-05,193362.390625,66113.828125,303166.25,1010.0733642578125,45.37516403198242
72783115,0.001656163222508944,-0.005179989280827968,-9.812969085475185,0.00018704648018384382,-0.00011960934079835797,-1.0225323080093052e-05,193362.390625,66113.828125,303166.25,1010.0733642578125,45.37516403198242
72792907,0.008924663277364075,-0.0010317789673672806,-9.809100968777702,3.199142664157134e-06,5.3462640987737495e-05,-0.00032637153095329413,193680.578125,55825.41796875,305716.25,1010.09130859375,45.3853759765625
72803091,0.005125411065316499,-0.0035733359217511307,-9.807731492459343,0.00013503880705516627,-0.00040901071459517775,-4.754389852514723e-05,193680.578125,55825.41796875,305716.25,1010.09130859375,45.3853759765625
72813188,0.0008256064970257881,-0.010427475190149416,-9.81184278243737,0.00019183587806597194,-0.00041711522915863393,0.00027651129015957704,193680.578125,55825.41796875,305716.25,1010.09130859375,45.3853759765625
72822983,0.007880911441541016,-0.014403753197179903,-9.815476281582878,9.171579729950335e-06,-0.0002893583919852689,0.0006303995494288742,193680.578125,55825.41796875,305716.25,1010.09130859375,45.3853759765625
72833610,0.00436878970453769,-0.009591423189626802,-9.801129205166863,-0.0001767902844602258,-0.00019011821548917292,0.0002989106749208062,193680.578125,55825.41796875,305716.25,1010.09130859375,45.3853759765625
72842882,-0.00219307073762387,-0.0093412326931821,-9.805613381802605,-8.939726234697895e-05,-5.410486172183378e-05,9.115565875781467e-05,193680.578125,55825.41796875,305716.25,1010.09130859375,45.3853759765625
72853105,0.0020906703788998726,-0.0005434753656254898,-9.813800675808952,-4.1600157548459665e-05,0.0005514530597953409,-0.00010348054389233002,193680.578125,55825.41796875,305716.25,1010.09130859375,45.3853759765625
72863210,0.0005784185845616463,0.0021242199182642807,-9.818283898770378,0.0003611501911638289,0.0007575229641748876,-0.0002951004546577693,193680.578125,55825.41796875,305716.25,1010.09130859375,45.3853759765625
72872947,0.004811316939091981,-0.006275646603094209,-9.812401635586784,0.0008042630820984005,0.00012138369076422455,5.96208872064366e-05,193680.578125,55825.41796875,305716.25,1010.09130859375,45.3853759765625
72883158,-0.0031268222015139457,-0.008113682484613527,-9.814807755887077,0.0003506637027004718,7.884112293834837e-05,8.367205986523768e-05,193680.578125,55825.41796875,305716.25,1010.09130859375,45.3853759765625
72892948,-0.004864595431508079,-0.0026124626066401646,-9.815956108088335,-7.151613639231474e-05,0.0004441160259790536,-0.000177576799923692,191559.265625,59007.3984375,305116.28125,1010.0296020507812,45.37999725341797
72903152,-0.006396874386490836,0.003927820954112704,-9.811437599177202,-0.00043812489415082784,7.033684109559318e-05,0.00024188242210643543,191559.265625,59007.3984375,305116.28125,1010.0296020507812,45.37999725341797
72913137,-0.002119816440762534,0.005502285096435244,-9.809996597285112,-6.886833174300083e-05,0.00018876230628451368,-0.0003452265048866608,191559.265625,59007.3984375,305116.28125,1010.0296020507812,45.37999725341797
72922905,-0.0033903639499559546,-0.003334565427513425,-9.816822998041948,0.000686990308589007,0.000620193850996327,-0.00010832871734178448,191559.265625,59007.3984375,305116.28125,1010.0296020507812,45.37999725341797
72933569,0.00550910870390986,-0.010432197120399778,-9.812185279841264,0.0002306441096725717,0.0004597227804384943,0.0002550402493040095,191559.265625,59007.3984375,305116.28125,1010.0296020507812,45.37999725341797
72942935,-0.00037971844118978026,-0.0025061577226832554,-9.810837738032182,-0.00023846435172978492,0.00036168449027685484,0.00034614352958728736,191559.265625,59007.3984375,305116.28125,1010.0296020507812,45.37999725341797
72953160,-0.0014077868048563147,0.0030728966329380825,-9.80606173705562,-0.0004977768617545411,6.396051198465785e-05,-1.075981375775123e-05,191559.265625,59007.3984375,305116.28125,1010.0296020507812,45.37999725341797
72963158,-0.0035995091978922034,0.00015433284976928974,-9.798350326533159,0.00024974239246424584,-0.00030491601624304393,-0.0005694565591869392,191559.265625,59007.3984375,305116.28125,1010.0296020507812,45.37999725341797
72972906,-0.003830976385296836,-0.009378118779869382,-9.80409526061519,0.00036539027538586705,-0.000378083526224475,-0.00019230031133643175,191559.265625,59007.3984375,305116.28125,1010.0296020507812,45.37999725341797
72983144,-0.005967378217400565,-0.01091608997842819,-9.813251487727007,0.0006402618968996063,-0.00038691882341878453,-0.00043448731261319304,191559.265625,59007.3984375,305116.28125,1010.0296020507812,45.37999725341797
72992997,-0.003975411822385588,-0.005670898871958485,-9.809283095744982,0.0003953301221602014,0.00012582427301202279,-0.0003697460265357083,196226.171875,55401.16015625,302566.25,1010.059814453125,45.37677764892578
73003098,-0.0045843775768945605,0.004316194636285076,-9.816280204204455,0.00038673613937612386,0.000135741606966968,-0.0003516103238325602,196226.171875,55401.16015625,302566.25,1010.059814453125,45.37677764892578
73013202,-0.0072438101669023425,-0.00042770923906587655,-9.8050058664359,-5.4872470059082884e-05,8.161214940008085e-05,-0.00018519549439587057,196226.171875,55401.16015625,302566.25,1010.059814453125,45.37677764892578
73022893,-0.005120104124135771,-0.0003865224295260816,-9.809411841777697,-0.0003081181038166979,-0.00039703678045663673,0.0001816868857531656,196226.171875,55401.16015625,302566.25,1010.059814453125,45.37677764892578
73033506,0.001083040664606294,-0.008278378563463917,-9.822053748515978,-3.74370017630285e-06,-0.0002761410548981248,0.0003444747203502768,196226.171875,55401.16015625,302566.25,1010.059814453125,45.37677764892578
73042945,-0.0016818995972345263,-0.013648913519919148,-9.824074584392443,0.00010646385101176561,-5.3649466978476085e-05,0.0004903160811409318,196226.171875,55401.16015625,302566.25,1010.059814453125,45.37677764892578
73053102,-0.0010832677980134875,-0.005895332711279622,-9.816126662639514,0.00017717716593801738,0.0001069732272600786,0.0003469590087661484,196226.171875,55401.16015625,302566.25,1010.059814453125,45.37677764892578
73063243,-0.0009061376949022204,-0.0020954621010425,-9.811522323039904,7.29861586707993e-05,-1.1796157893349118e-05,0.0005641176326207781,196226.171875,55401.16015625,302566.25,1010.059814453125,45.37677764892578
73072906,-0.002981087138242522,0.006004481298386821,-9.809968787578478,0.00010012716131791236,-0.0006030029587844356,0.0004860355188611859,196226.171875,55401.16015625,302566.25,1010.059814453125,45.37677764892578
73083177,0.001980396042280397,0.011138959509789714,-9.811938125041857,0.00015118159547023238,-0.00033488422629199613,0.00012501762148532658,196226.171875,55401.16015625,302566.25,1010.059814453125,45.37677764892578
73092936,-0.0006267006705389377,0.003137907095349668,-9.812353939876242,2.8829769832885987e-06,-0.00018840248489506752,-0.0003415452121845186,193362.390625,60386.26953125,306466.25,1010.0792236328125,45.37623977661133
73103104,0.00285301104086777,-0.0010374951287142054,-9.814053387508078,0.0006270769688087388,-0.0008778418803958802,-0.0005608152752830387,193362.390625,60386.26953125,306466.25,1010.0792236328125,45.37623977661133
73113190,0.0053102125217332485,-0.006117561750017764,-9.81346401678054,0.0006598205243023916,-0.0009924784925206213,0.0001165402098121382,193362.390625,60386.26953125,306466.25,1010.0792236328125,45.37623977661133
73122942,-0.0008807505677328464,-0.006060222081743838,-9.815646977290793,-0.00020564769264116295,-0.00045027904965901956,0.00013120693965165686,193362.390625,60386.26953125,306466.25,1010.0792236328125,45.37623977661133
73133606,-0.0021008501957044956,-0.0071648600622049585,-9.815481991634055,-0.0007187450367239431,5.248970879254654e-05,1.9669034183517065e-05,193362.390625,60386.26953125,306466.25,1010.0792236328125,45.37623977661133
73142923,0.0026798371960534695,-0.003420950762831332,-9.807255596980735,-0.0006138316651088313,0.00017753987518152013,-0.00013955607228863243,193362.390625,60386.26953125,306466.25,1010.0792236328125,45.37623977661133
73153113,-0.0019106368730650303,-0.004074307076536776,-9.810559124812766,-0.00017635838347292848,1.6984023713858404e-06,-0.00030130305477368835,193362.390625,60386.26953125,306466.25,1010.0792236328125,45.37623977661133
73163168,-0.0013748581717596409,-0.012736612848841311,-9.810279698238059,0.00014563706892271183,0.0003011616546755077,-0.00030757999430361394,193362.390625,60386.26953125,306466.25,1010.0792236328125,45.37623977661133
73172952,-0.003907675595103299,-0.007912190548979403,-9.804721684322043,0.00026350400250133715,0.0004358727211692722,-0.00042103772667187456,193362.390625,60386.26953125,306466.25,1010.0792236328125,45.37623977661133
73183160,0.00216791525381943,-0.004707740537726046,-9.806650013789817,-8.12335968145006e-08,0.0004422659596057029,-0.00023694624924983088,193362.390625,60386.26953125,306466.25,1010.0792236328125,45.37623977661133
73192912,-0.0037668223689184543,-0.0017036664410463587,-9.803192944392844,-0.0005097811638591007,0.00019599877592189029,0.00022080588477538243,193680.609375,62613.6484375,309616.28125,1010.0549926757812,45.37623977661133
73203144,-0.005152861327944791,-0.00022620885809576663,-9.809179158076926,-0.0008989170139868871,-0.0002416769592346272,0.00039583495144315806,193680.609375,62613.6484375,309616.28125,1010.0549926757812,45.37623977661133
73213139,-0.003869573325930631,-0.0058796051069132105,-9.811918110713645,-0.0005347225062762515,3.0783417201729266e-05,0.00044418303495322164,193680.609375,62613.6484375,309616.28125,1010.0549926757812,45.37623977661133
73222944,-0.0067307303856001255,-0.00875073104342139,-9.808953137263938,-4.545909021932276e-05,0.00041476673973737076,0.0003377141218078583,193680.609375,62613.6484375,309616.28125,1010.0549926757812,45.37623977661133
73233619,-0.0042287732670889255,0.00020295948544823972,-9.801933140620871,0.0005002222776199564,0.0005101589678415449,0.0002607612366699874,193680.609375,62613.6484375,309616.28125,1010.0549926757812,45.37623977661133
73242943,-0.0015749211619482395,0.006262434728539823,-9.807142109737082,0.00013397951508135192,0.0007969017798641117,-3.430052693884078e-05,193680.609375,62613.6484375,309616.28125,1010.0549926757812,45.37623977661133
73253104,-0.00132828459244827,0.003207637079156278,-9.808711857661887,-0.0002483670662370638,0.00011369689778437629,-5.468889522317055e-05,193680.609375,62613.6484375,309616.28125,1010.0549926757812,45.37623977661133
73263230,0.0001576741029634121,0.0008957889751561865,-9.80950436101882,-7.427210337870166e-05,3.67732619961144e-05,-0.0003783271569846869,193680.609375,62613.6484375,309616.28125,1010.0549926757812,45.37623977661133
73272971,0.0033982743312730435,-0.00995128034790671,-9.811062664851828,-0.00036987579122457065,6.341904114013329e-05,-0.0002608226825105697,193680.609375,62613.6484375,309616.28125,1010.0549926757812,45.37623977661133
73283137,0.007642057984055484,-0.006089487962328555,-9.825673909053489,-0.0007991999566768423,0.00032236495931645646,0.00019351821849059037,193680.609375,62613.6484375,309616.28125,1010.0549926757812,45.37623977661133
73292938,0.005095732658089602,0.0003957134560712561,-9.8175772141072,-8.248187922096223e-05,7.23302993319349e-05,0.0002293460782238077,194953.390625,59219.53125,307366.28125,1010.0493774414062,45.37623977661133
73303109,-0.0020468483875379917,0.0017150697187551245,-9.814207882747336,0.000245114048735319,4.3347264323511867e-05,0.00046753286350567635,194953.390625,59219.53125,307366.28125,1010.0493774414062,45.37623977661133
73313115,-0.0022369350503073093,0.0014609155134328589,-9.81675991521804,-0.00021202867836497136,0.0001983837184124978,5.9380919803425636e-05,194953.390625,59219.53125,307366.28125,1010.0493774414062,45.37623977661133
73322921,0.00989544883269211,-0.006486156873308779,-9.812387318477317,-8.784521313306287e-05,4.85232496030049e-05,-0.00048714230452615026,194953.390625,59219.53125,307366.28125,1010.0493774414062,45.37623977661133
73333561,0.006767411976040805,-0.0072619932814470545,-9.810131878719016,-0.0004159878419925586,-0.00016654311988897365,-0.00027680243166114393,194953.390625,59219.53125,307366.28125,1010.0493774414062,45.37623977661133
73342900,-0.0009548987458334324,-0.00011354862888968142,-9.81373199926345,6.61687760982535e-05,-0.00035112942973138973,-0.0001922190169426352,194953.390625,59219.53125,307366.28125,1010.0493774414062,45.37623977661133
73353141,-0.007014843375502622,-0.0011205243988863245,-9.80919918523757,0.00015174098618057213,-8.519623483518347e-05,0.00011430120120339837,194953.390625,59219.53125,307366.28125,1010.0493774414062,45.37623977661133
73363170,0.002924916594208682,-0.004999572329126956,-9.821376652583762,-0.00020639470065749593,-0.00015870441060907882,0.0005314567495514899,194953.390625,59219.53125,307366.28125,1010.0493774414062,45.37623977661133
73372905,0.004720461814583743,-0.004652010194861056,-9.822021336421653,-0.0003694280870006547,-0.00022250032893136353,0.0004329490873641595,194953.390625,59219.53125,307366.28125,1010.0493774414062,45.37623977661133
73383126,0.006094348876656497,-0.006328711204134585,-9.817668766841575,-0.00025526051220755436,-0.0002502489759026675,0.00013876360371059548,194953.390625,59219.53125,307366.28125,1010.0493774414062,45.37623977661133
73392953,0.004981425883538115,-0.005046069614916604,-9.81971910287855,-0.00032045706017258535,-0.000271003401055573,6.72410474212206e-05,191347.140625,56249.6875,302716.28125,1010.067626953125,45.37409210205078
73403097,-0.0015376011707717296,-0.003533966832190316,-9.811196115512827,-0.000145045036208713,-0.00022896198663824655,0.0002774051622540987,191347.140625,56249.6875,302716.28125,1010.067626953125,45.37409210205078
73413135,-0.0026586527802878734,-0.002991996698408883,-9.818294313449838,-0.000121047458253698,-0.00031150589222983874,4.236440281917518e-05,191347.140625,56249.6875,302716.28125,1010.067626953125,45.37409210205078
73422911,-0.000686893878214967,-0.004950001828699868,-9.82101133157728,-5.085734925402985e-05,-9.39889711184562e-05,0.00011467179274720317,191347.140625,56249.6875,302716.28125,1010.067626953125,45.37409210205078
73433588,0.0005808522126740101,-0.004475563757448953,-9.810373094577768,-0.000528695607374785,5.39056212551757e-05,-9.84364510227629e-05,191347.140625,56249.6875,302716.28125,1010.067626953125,45.37409210205078
73442906,0.006883544208771575,0.0030057132315342017,-9.811131265659311,-0.00039113187073114286,0.00032210438928137117,-0.00018569497342153275,191347.140625,56249.6875,302716.28125,1010.067626953125,45.37409210205078
73453109,0.004355927290684569,0.007710605866879661,-9.808542993564584,5.859728856860702e-05,2.4594629733250967e-05,4.968589337610817e-05,191347.140625,56249.6875,302716.28125,1010.067626953125,45.37409210205078
73463166,-0.0011881912925177929,0.0005242824625675269,-9.807525423068979,-8.897969734122935e-05,-2.4598679944979468e-05,-0.00012057855792275453,191347.140625,56249.6875,302716.28125,1010.067626953125,45.37409210205078
73472949,-0.0026952053286963817,-0.0002521872449214868,-9.806928422946909,-1.805117414066526e-05,0.00015228254903609448,-0.0005310675683145114,191347.140625,56249.6875,302716.28125,1010.067626953125,45.37409210205078
73483196,-0.0037921990134650585,-0.00031276046517447753,-9.80815389444349,-5.281492927922127e-05,0.0007685465255895495,-0.0006393973803792783,191347.140625,56249.6875,302716.28125,1010.067626953125,45.37409210205078
73492920,-0.011751429201095398,0.002891956053160172,-9.806472605120957,0.0002081369256382408,0.0004075391981504771,8.964594034408663e-06,194529.125,55613.2890625,305716.28125,1010.0514526367188,45.37247848510742
73503095,-0.01821524000260144,0.004155351004980545,-9.80928499068004,0.00040883854117855153,-0.00022529778003358217,0.0004075000355252302,194529.125,55613.2890625,305716.28125,1010.0514526367188,45.37247848510742
73513124,-0.007366017461746033,0.0010921491006836703,-9.809205835711778,0.00021557560276850782,-0.0003536594675634143,0.0004432331219314835,194529.125,55613.2890625,305716.28125,1010.0514526367188,45.37247848510742
73522915,-0.0028900215634992676,-0.015190707363702316,-9.814399546038926,-0.00017429156841099538,-0.0004579491731956688,-7.954292069258656e-06,194529.125,55613.2890625,305716.28125,1010.0514526367188,45.37247848510742
73533696,0.0016066794982263488,-0.009046310402966995,-9.816474741351426,-0.0006960567171438066,-0.00029686594721992435,-0.0004289898466785201,194529.125,55613.2890625,305716.28125,1010.0514526367188,45.37247848510742
73542912,0.010610952018768494,-0.004351513304330368,-9.819542711627305,-0.00029205419386126377,-0.00017276523509194078,-0.00013303805883049455,194529.125,55613.2890625,305716.28125,1010.0514526367188,45.37247848510742
73553127,0.010627626418144409,0.00033622064390037565,-9.816995447528184,0.00028303895115531705,-0.00047776867800989123,6.366303148672495e-05,194529.125,55613.2890625,305716.28125,1010.0514526367188,45.37247848510742
73563201,0.010949968337089722,-0.005585500814534683,-9.816737955462754,0.00014376175559736512,-0.000713601003425577,-7.084881928756323e-05,194529.125,55613.2890625,305716.28125,1010.0514526367188,45.37247848510742
73572976,0.00779452824500293,-0.0027569176932349393,-9.812068766009629,-3.560962394768066e-05,-0.00020353309160695346,-0.00036028309534310785,194529.125,55613.2890625,305716.28125,1010.0514526367188,45.37247848510742
73583131,0.0027751689544031066,-0.0009402500768675992,-9.805771654498399,-9.873628922942371e-05,0.000143152347974098,0.00020267366960899716,194529.125,55613.2890625,305716.28125,1010.0514526367188,45.37247848510742
73592906,0.0023907353162266887,-0.001506129768952924,-9.807522638621759,-0.00014425313265180664,-3.0140153478141335e-06,0.0003444633758443033,189543.984375,55507.21484375,305716.25,1010.0697631835938,45.375701904296875
73603106,0.0014148508190610087,-0.00047369536505659227,-9.807213648143243,-7.429066017155053e-05,-0.0002525511817304659,0.00041672523282958174,189543.984375,55507.21484375,305716.25,1010.0697631835938,45.375701904296875
73613140,-0.003083198797752651,-0.002034331229791242,-9.808126314464044,0.0003672472551499821,-0.00010829963768739341,0.00018908682712552582,189543.984375,55507.21484375,305716.25,1010.0697631835938,45.375701904296875
73622970,-0.001468605828335079,-0.007906253007516462,-9.81103311378045,0.00036212466084746195,0.0002867029171091263,-0.00017400494918203002,189543.984375,55507.21484375,305716.25,1010.0697631835938,45.375701904296875
73633557,0.00505285756582996,-0.01845007624970396,-9.814347132029962,2.663155765387712e-05,0.0005089287361250017,-0.0003711570033521766,189543.984375,55507.21484375,305716.25,1010.0697631835938,45.375701904296875
73642890,0.009229168760726658,-0.008364888397321302,-9.812571390452813,-0.00035471345171915816,-0.00030945831615210133,-0.0007436197928802485,189543.984375,55507.21484375,305716.25,1010.0697631835938,45.375701904296875
73653137,0.0088723008512952,-0.0008175918136688054,-9.808829172435235,-0.00016884429778090196,-0.00016807036347128539,-0.00041595757731212324,189543.984375,55507.21484375,305716.25,1010.0697631835938,45.375701904296875
73663211,0.004223987925002781,0.002353539201155108,-9.80502782661004,7.165373545487894e-05,0.00040142751011333806,-0.00016977165152294582,189543.984375,55507.21484375,305716.25,1010.0697631835938,45.375701904296875
73672851,-0.004959575367023739,0.008518015476599139,-9.8142679770617,0.00013300453729809744,8.954606080695433e-05,0.0006430680069422906,189543.984375,55507.21484375,305716.25,1010.0697631835938,45.375701904296875
73683139,-0.009344569873859676,0.008250867458715838,-9.81254850226922,-0.0003479835110681735,9.74952336753477e-05,0.0005327754907591825,189543.984375,55507.21484375,305716.25,1010.0697631835938,45.375701904296875
73692906,-0.018825496320132196,0.008468445547445747,-9.80586615724503,-0.001994840221146533,0.001870161032401856,0.0007858234003654905,190816.796875,58264.94140625,302566.28125,1010.0368041992188,45.378387451171875
73703110,0.01715120043933016,0.022917959996088477,-9.799075996112217,-0.0015055898135923236,0.0003850521106318495,0.00041524931846682357,190816.796875,58264.94140625,302566.28125,1010.0368041992188,45.378387451171875
73713138,0.009790611680146277,0.006854999967440101,-9.807380592059483,0.0020791451654933006,-0.002813268110058371,-0.0005714525922664217,190816.796875,58264.94140625,302566.28125,1010.0368041992188,45.378387451171875
73722987,0.003120702918168128,-0.006875183276311425,-9.813927566241611,0.0038982493545464784,-0.0033345260954416433,-0.0007689311623104624,190816.796875,58264.94140625,302566.28125,1010.0368041992188,45.378387451171875
73733606,0.0072359119015894535,0.003999266930445167,-9.812783157061924,0.00737111631069105,-0.004735525820306603,-0.0005698283074886314,190816.796875,58264.94140625,302566.28125,1010.0368041992188,45.378387451171875
73742917,-0.001728865091208398,-0.0019281691233077325,-9.815290366839756,0.011463954925870115,-0.00616806431849963,-0.0006529233523175828,190816.796875,58264.94140625,302566.28125,1010.0368041992188,45.378387451171875
73753127,-0.004112357978228509,0.006620634504183265,-9.820801650714268,0.012765061922704393,-0.003628969548172418,-0.00025768879451758785,190816.796875,58264.94140625,302566.28125,1010.0368041992188,45.378387451171875
73763160,-0.0114070500773229,0.00184149683318946,-9.827851211261143,0.012186864272092993,-0.0022477522789455095,-0.00026346820406585557,190816.796875,58264.94140625,302566.28125,1010.0368041992188,45.378387451171875
73772939,-0.007604392949942529,-0.011947873822824029,-9.821626578997959,0.009912086531852896,-0.0011823378800368944,-0.00029837903450213,190816.796875,58264.94140625,302566.28125,1010.0368041992188,45.378387451171875
73783124,0.005579685087796271,-0.032501716009751824,-9.822126304339756,0.0022490121166757852,0.0006267658254177234,0.00025442044541735577,190816.796875,58264.94140625,302566.28125,1010.0368041992188,45.378387451171875
73792916,-0.0055521915486282936,-0.03728588217748019,-9.81955420662997,-0.008191401586467046,0.0039033415896497746,0.0007407786055188548,191028.953125,60174.1328125,305566.25,1010.0669555664062,45.37516403198242
73803116,0.005590181536393679,0.002553981599680455,-9.807001945277431,-0.011853686981433648,0.006180566845615961,0.0009047892257291745,191028.953125,60174.1328125,305566.25,1010.0669555664062,45.37516403198242
73813181,-0.004222285263819181,-0.01861411625398013,-9.810374137660244,-0.01137478694372775,0.0058564256114564915,0.0007147876625601124,191028.953125,60174.1328125,305566.25,1010.0669555664062,45.37516403198242
73822954,0.00168463189096979,-0.012475024106629817,-9.809172508021572,-0.014629970752233285,0.005170436220397808,0.0009753650250565182,191028.953125,60174.1328125,305566.25,1010.0669555664062,45.37516403198242
73833593,0.009249653405862368,-0.009356456937917201,-9.80921828438876,-0.006071727704787273,0.003199965337445595,0.0009141344074811708,191028.953125,60174.1328125,305566.25,1010.0669555664062,45.37516403198242
73842914,0.009498405940251864,-0.007721196057923763,-9.815150138636806,-0.00273613560066523,0.002480346819540121,0.0005018831601552587,191028.953125,60174.1328125,305566.25,1010.0669555664062,45.37516403198242
73853115,0.0024559532472663292,-0.004035907926686733,-9.80892359902499,0.00046297112193925335,0.0033812500705622216,-4.176261211280563e-05,191028.953125,60174.1328125,305566.25,1010.0669555664062,45.37516403198242
73863182,0.00631858009787134,-0.007999437990315883,-9.81119525124667,0.0002057748678423281,0.00521361093797312,0.0007406284879613589,191028.953125,60174.1328125,305566.25,1010.0669555664062,45.37516403198242
73872903,-0.0036456326773590675,-0.006203103008397548,-9.803002235194423,-0.0025110817333400433,0.006817531882008173,0.0011163291368354034,191028.953125,60174.1328125,305566.25,1010.0669555664062,45.37516403198242
73883181,0.006426039821820773,-0.0010662406112036393,-9.798546668788173,-0.003366115484917182,0.008919086417337515,0.00031761764182708374,191028.953125,60174.1328125,305566.25,1010.0669555664062,45.37516403198242
73893021,0.014826804897323242,0.0008378842791989527,-9.799519340015179,-0.0022198726285498037,0.006569963213492297,-0.0010959833773128095,191241.078125,51052.453125,310516.28125,1010.0648193359375,45.37355422973633
73903141,0.01524749448014795,0.00951253566355259,-9.807937423206097,0.0003706175855111883,0.0028267747577914223,-0.0025634685909650626,191241.078125,51052.453125,310516.28125,1010.0648193359375,45.37355422973633
73913134,-0.011304869750007995,-0.01244594958215206,-9.801858703113323,-0.0014972167184825434,0.005154011104691885,-0.0026948970655254426,191241.078125,51052.453125,310516.28125,1010.0648193359375,45.37355422973633
73922983,0.012308218082919709,-0.005956493882231406,-9.804246703601605,-0.0028498662498097314,0.010896407332707308,-0.0018287181766978803,191241.078125,51052.453125,310516.28125,1010.0648193359375,45.37355422973633
73933640,0.02317714740945398,0.009972005518384286,-9.810688773608929,0.0019374658956874714,0.010776515383709334,-0.0019907846028260293,191241.078125,51052.453125,310516.28125,1010.0648193359375,45.37355422973633
73942927,0.02570954760028421,-0.003796414104990653,-9.814661780811077,0.004544683187057506,0.008033534776855372,-0.003975175265809089,191241.078125,51052.453125,310516.28125,1010.0648193359375,45.37355422973633
73953147,0.015841357907786957,-0.004659936396174125,-9.815529624439007,0.005161778921981584,0.005865825605083369,-0.004905207027336151,191241.078125,51052.453125,310516.28125,1010.0648193359375,45.37355422973633
73963168,-0.004977628090843567,9.284857124836066e-05,-9.807493010974651,0.006651780023028384,0.009918098602879904,-0.009131178670217783,191241.078125,51052.453125,310516.28125,1010.0648193359375,45.37355422973633
73972932,0.018705938509240738,-0.002358854381136588,-9.813598433948284,0.0074674742433924746,0.011840467606175803,-0.012131696045985014,191241.078125,51052.453125,310516.28125,1010.0648193359375,45.37355422973633
73983197,0.03318993424488603,-0.0002950882592722692,-9.819102088428265,0.007182126319756042,0.00867035173295822,-0.010992123224427492,191241.078125,51052.453125,310516.28125,1010.0648193359375,45.37355422973633
73992949,0.03171380659057199,0.0011403182467892847,-9.813983718372112,0.008614546539982088,0.005283557143498324,-0.008390908539881498,199726.34375,61659.046875,298216.25,1010.0629272460938,45.37355422973633
74003102,0.028419860205188385,0.004459827574200936,-9.803527633167034,0.010529705243905313,0.0025073350728192553,-0.004680590183129102,199726.34375,61659.046875,298216.25,1010.0629272460938,45.37355422973633
74013211,0.031111710271373383,0.007013283105798074,-9.804753104663616,0.01430856149156881,-0.00296329098337505,-0.0024601315992228093,199726.34375,61659.046875,298216.25,1010.0629272460938,45.37355422973633
74022941,0.015944667658343903,-0.007110953895144156,-9.80663088939262,0.01732745665570093,-0.007186879604618883,-0.0018183916719905439,199726.34375,61659.046875,298216.25,1010.0629272460938,45.37355422973633
74033579,0.01594738712026178,-0.013918072549395255,-9.811620513416058,0.017373069110115297,-0.007166179563414192,-0.0026291598944268527,199726.34375,61659.046875,298216.25,1010.0629272460938,45.37355422973633
74042900,0.0023680110783725894,-0.01988388654380291,-9.81993655345512,0.016681264075239427,-0.007095161094825601,-0.0024572021240643564,199726.34375,61659.046875,298216.25,1010.0629272460938,45.37355422973633
74053103,-0.006018004813656219,-0.018784277705244712,-9.82065562388969,0.016707041221459634,-0.005250585931848623,-0.0014295959292254749,199726.34375,61659.046875,298216.25,1010.0629272460938,45.37355422973633
74063182,-0.005822024741634735,-0.024840951530031852,-9.817601958728558,0.015194551008542306,-0.003361581559788324,-0.0017208969831741753,199726.34375,61659.046875,298216.25,1010.0629272460938,45.37355422973633
74072907,-0.00497800807045401,-0.02551791128306835,-9.809225837207562,0.011025712745984323,-0.00036841182436969135,-0.0015140448842472735,199726.34375,61659.046875,298216.25,1010.0629272460938,45.37355422973633
74083134,0.0016679321737438357,-0.01738347914605587,-9.812688628650433,0.007372393659104835,0.0014828603337221965,-0.0007318994059502485,199726.34375,61659.046875,298216.25,1010.0629272460938,45.37355422973633
74092962,0.01322880579035779,-0.011291929798662892,-9.811687308696643,0.009888621296454625,-0.0004440792806843265,-0.0005076303709756619,195589.75,65371.359375,305116.28125,1010.0774536132812,45.37677764892578
74103126,0.009958500097208223,-0.02133626611763262,-9.802841979411975,0.012375868174899773,-0.0017828371753847196,-0.0009930604351211375,195589.75,65371.359375,305116.28125,1010.0774536132812,45.37677764892578
74113137,0.00900398386519452,-0.036217422502577534,-9.80662997379674,0.009376929390896516,-0.0010624378599157526,-0.0007917747348073906,195589.75,65371.359375,305116.28125,1010.0774536132812,45.37677764892578
74122992,0.012259187231474122,-0.03558394433790468,-9.829264480022326,0.005184103052784165,-0.0001845080776245768,-0.0007193982814896888,195589.75,65371.359375,305116.28125,1010.0774536132812,45.37677764892578
74133615,0.012817667851858339,-0.02723523350292467,-9.829953986553088,0.0032875151538294158,0.000350271412783678,-0.0003649686909738964,195589.75,65371.359375,305116.28125,1010.0774536132812,45.37677764892578
74142900,0.02534767059486409,-0.021683396118223897,-9.825307685283557,0.0034037449096333584,4.138381630871754e-05,-2.5456763523820647e-05,195589.75,65371.359375,305116.28125,1010.0774536132812,45.37677764892578
74153112,0.019800221602134904,-0.02304672570759081,-9.82156260624303,0.00415690128477331,-0.0019750472536241605,0.00018250973198520593,195589.75,65371.359375,305116.28125,1010.0774536132812,45.37677764892578
74163212,0.005359115133695802,-0.017908939438402882,-9.810144263652697,0.004424017172027787,-0.004610372209542055,0.0005880866160623693,195589.75,65371.359375,305116.28125,1010.0774536132812,45.37677764892578
74172952,0.005504632423334321,-0.029746675210535756,-9.800458747295275,0.0041714084965180954,-0.005993941766761799,0.0003502113327158579,195589.75,65371.359375,305116.28125,1010.0774536132812,45.37677764892578
74183129,0.01129578245680829,-0.03786237658792757,-9.80749781742467,0.0029718855095100007,-0.005797086251520176,0.0007720597573097759,195589.75,65371.359375,305116.28125,1010.0774536132812,45.37677764892578
74192954,0.009928922838883913,-0.04243995541585299,-9.808333274623134,0.001080807665763777,-0.004228826967845104,0.0003602526288665753,191771.390625,60280.19140625,303166.25,1010.0556640625,45.37516403198242
74203113,0.0004908402630858788,-0.027864444198735683,-9.808754798670986,-0.0009183591283574884,-0.0029142563062108974,-7.321132363752314e-05,191771.390625,60280.19140625,303166.25,1010.0556640625,45.37516403198242
74213177,0.0013576259085708031,-0.026337321045525997,-9.815934058924892,-0.0015524374140143578,-0.0018637502862460832,0.0006136283940356146,191771.390625,60280.19140625,303166.25,1010.0556640625,45.37516403198242
74222926,0.003574486560540713,-0.0347650005842528,-9.811533805628994,-0.0013104564096495692,-0.0016812104795448403,0.0009438132714200687,191771.390625,60280.19140625,303166.25,1010.0556640625,45.37516403198242
74233551,-0.0016893784335083595,-0.031125362160333125,-9.801992294093349,-0.0028726355923056786,-0.0017563168721593837,0.0008776360504049729,191771.390625,60280.19140625,303166.25,1010.0556640625,45.37516403198242
74242901,0.0063877065846495995,-0.021731886210568874,-9.801703330775478,-0.003862469671824593,-0.0028263790363766174,0.0010402032952476215,191771.390625,60280.19140625,303166.25,1010.0556640625,45.37516403198242
74253170,0.012663010246472872,-0.022080081644185512,-9.796836730738857,-0.0037997946893513386,-0.005595861824075125,0.0018416793049033653,191771.390625,60280.19140625,303166.25,1010.0556640625,45.37516403198242
74263187,0.0026753430435233483,-0.02077303374064776,-9.797684547206142,-0.0025080242013275807,-0.008524064795891188,0.001966353013245381,191771.390625,60280.19140625,303166.25,1010.0556640625,45.37516403198242
74272933,-0.002739150338453733,-0.022990520241387813,-9.809283134242275,-0.002166515430966038,-0.008414870949307821,0.0017153714746888649,191771.390625,60280.19140625,303166.25,1010.0556640625,45.37516403198242
74283160,0.000399660057740725,-0.027093197348245113,-9.809951659938076,-0.0049851424811124985,-0.006654377451012276,0.001715300694173194,191771.390625,60280.19140625,303166.25,1010.0556640625,45.37516403198242
74292942,-0.004818629767763483,-0.025899362804592485,-9.805553377734109,-0.0075201141894693894,-0.004297407725257461,0.001487270860401714,192832.0625,55401.16015625,307066.28125,1010.0645751953125,45.37731170654297
74303111,-0.011964444365370142,-0.025499177219570512,-9.804543436633034,-0.008755505668454937,-0.0010633405501857748,0.0014496077098229768,192832.0625,55401.16015625,307066.28125,1010.0645751953125,45.37731170654297
74313127,-0.0086153636835693,-0.011964959146679277,-9.814539850817605,-0.008734562086396985,0.0027963021682671854,0.0013076114015931131,192832.0625,55401.16015625,307066.28125,1010.0645751953125,45.37731170654297
74322905,0.004490863237512244,-0.014942799749077196,-9.823658884631081,-0.008267472150259785,0.004664800214218313,0.000922421215968007,192832.0625,55401.16015625,307066.28125,1010.0645751953125,45.37731170654297
74333620,0.011589135680329932,-0.020985183360279436,-9.820229471789284,-0.007468434168481402,0.0037151287222377607,0.0008204559459628405,192832.0625,55401.16015625,307066.28125,1010.0645751953125,45.37731170654297
74342956,0.014551680240762366,-0.014002737643421526,-9.811561525927468,-0.005779050408386759,0.0009835166536368081,0.0009316694237569215,192832.0625,55401.16015625,307066.28125,1010.0645751953125,45.37731170654297
74353111,0.014799024615419043,-0.013363924863041277,-9.808705271349831,-0.003860120080866985,-0.001238365223994141,0.0014361164545917751,192832.0625,55401.16015625,307066.28125,1010.0645751953125,45.37731170654297
74363162,0.004330236170423163,-0.0141825127026447,-9.809472025500222,-0.0015164087540368958,-0.0026367873972185304,0.0017671797437870743,192832.0625,55401.16015625,307066.28125,1010.0645751953125,45.37731170654297
74372989,0.0005944405533195862,-0.020984587313831682,-9.811126650439187,0.0018854293725554423,-0.002605040473295038,0.0015988707788565995,192832.0625,55401.16015625,307066.28125,1010.0645751953125,45.37731170654297
74383142,0.00011192605270160527,-0.019633104147613878,-9.80829423771946,0.004672963520056434,-0.0020316753391079953,0.0009637203662933649,192832.0625,55401.16015625,307066.28125,1010.0645751953125,45.37731170654297
74392899,-0.006067785141699922,-0.015826575450926583,-9.799399164218881,0.004781937845234396,-0.0007835621496519209,0.0001756719316321955,193574.515625,57416.40625,306316.25,1010.04248046875,45.37409210205078
74403126,0.000261013688809264,-0.012391895048647683,-9.80603387643812,0.003034814180989387,-0.00039814972717744715,8.916301797825751e-06,193574.515625,57416.40625,306316.25,1010.04248046875,45.37409210205078
74413129,-0.0008317629673415539,-0.015082471065550607,-9.808091905612924,0.0018955554479701542,-0.0011659530706560374,0.0002970507280255965,193574.515625,57416.40625,306316.25,1010.04248046875,45.37409210205078
74422912,-0.0039023483970099804,-0.011414527885943215,-9.81971338083265,-0.0009000268399746991,-0.0012009571788689256,0.00014997585231273612,193574.515625,57416.40625,306316.25,1010.04248046875,45.37409210205078
74433582,0.002664168658024657,-0.027535751454859536,-9.816522386569956,-0.004657231584008215,0.0002567939385449379,0.0009317777962710074,193574.515625,57416.40625,306316.25,1010.04248046875,45.37409210205078
74442963,-0.002783792731993806,-0.025959953658610146,-9.808774736423471,-0.009865176711048362,0.0009046575736397743,0.001136795015102934,193574.515625,57416.40625,306316.25,1010.04248046875,45.37409210205078
74453104,-0.007367412266963136,-0.02365245669367866,-9.818703439731577,-0.012398882616128204,0.002541667943089628,0.0011984327370587102,193574.515625,57416.40625,306316.25,1010.04248046875,45.37409210205078
74463237,0.006637011947399962,-0.013120912008314889,-9.819527414340952,-0.01244073159601855,0.003313189300909066,0.0016638003085094801,193574.515625,57416.40625,306316.25,1010.04248046875,45.37409210205078
74472952,0.010319282593495238,-0.0024056881594951562,-9.806688097019174,-0.006224024422283647,0.0016233725922325491,0.0020001713214728347,193574.515625,57416.40625,306316.25,1010.04248046875,45.37409210205078
74483128,0.0009069566748207691,0.0122556909990017,-9.792161729831674,0.004682108447138789,-0.0001578134566693236,0.0012931851465541235,193574.515625,57416.40625,306316.25,1010.04248046875,45.37409210205078
74492941,0.003941120601522741,-0.003866496698969435,-9.797937296145996,0.011287856960465123,-0.0001380821215510794,0.0007082805921422245,196968.625,55719.3515625,309316.28125,1010.0499877929688,45.37892532348633
74503108,0.0023507047661421865,-0.01560221167098863,-9.818777940982422,0.013240056225825955,0.00014102465412780402,0.0004004223253909426,196968.625,55719.3515625,309316.28125,1010.0499877929688,45.37892532348633
74513131,-0.0006717350117089183,-0.029195654409044813,-9.811324976199707,0.01234063610600393,0.0006143539276459789,0.0007781655247421863,196968.625,55719.3515625,309316.28125,1010.0499877929688,45.37892532348633
74522963,-0.004474928580892268,-0.03932263256799562,-9.806647203677734,0.0058017714151934845,0.0027898193866500234,0.0016793537022644581,196968.625,55719.3515625,309316.28125,1010.0499877929688,45.37892532348633
74533518,0.0038489941724417776,-0.03093967141401155,-9.80810537170752,0.0007382731971153182,0.004725470679674444,0.002550678846808702,196968.625,55719.3515625,309316.28125,1010.0499877929688,45.37892532348633
74542959,0.01227530280433875,-0.011952954547518324,-9.80008592438086,6.847248433010031e-05,0.00435042894152194,0.0027119243120873274,196968.625,55719.3515625,309316.28125,1010.0499877929688,45.37892532348633
74553210,0.015498580432760534,-0.005479562299364638,-9.802928827518066,0.0025910959781901104,0.0023429978237041807,0.0018476039938727321,196968.625,55719.3515625,309316.28125,1010.0499877929688,45.37892532348633
74563165,0.01136825422130805,-0.01375483276140077,-9.815090082400879,0.005711217989941047,-0.0002813300315969089,0.0011927036637538972,196968.625,55719.3515625,309316.28125,1010.0499877929688,45.37892532348633
74572933,0.006460631287920293,-0.015241551416033339,-9.814985178226074,0.007830714920331647,-0.0012264704500770593,0.001417428541379601,196968.625,55719.3515625,309316.28125,1010.0499877929688,45.37892532348633
74583143,-0.0021554510823609263,-0.027207914011591505,-9.81717004608496,0.00873061280863445,-0.0008438972226789618,0.0024878904758119883,196968.625,55719.3515625,309316.28125,1010.0499877929688,45.37892532348633
74592948,-0.0064517284610206005,-0.030454933636217874,-9.82065847208021,0.007078488510285141,0.00027182385508472615,0.0034612719696301333,196332.25,56567.8828125,303616.28125,1010.0498046875,45.37409210205078
74603118,-0.006924192128413331,-0.0317901372838314,-9.825740602512338,0.004690200243328335,0.0014260478068286418,0.005231994183762681,196332.25,56567.8828125,303616.28125,1010.0498046875,45.37409210205078
74613175,-0.010077523706191194,-0.02338925003293113,-9.81129052927015,0.0031180711595309996,0.0018725422427201509,0.00800938436578096,196332.25,56567.8828125,303616.28125,1010.0498046875,45.37409210205078
74622921,-0.009293536362879884,-0.013110756866961282,-9.804098871250131,0.00300004721078706,0.0012534744322443246,0.008623257258935582,196332.25,56567.8828125,303616.28125,1010.0498046875,45.37409210205078
74633623,-0.00036771100544275015,-0.013534486286669534,-9.805320528049448,0.0025361451918227695,0.0009457602149018883,0.007494062164827,196332.25,56567.8828125,303616.28125,1010.0498046875,45.37409210205078
74642905,0.008809511842495787,-0.014434076838522714,-9.817021158237436,0.0027132368778778337,0.0006837543781990051,0.006520930657191884,196332.25,56567.8828125,303616.28125,1010.0498046875,45.37409210205078
74653134,0.011964028062588561,-0.026174165301352303,-9.813360002536752,0.0019430386966062807,-8.050260896875008e-05,0.006392047254397284,196332.25,56567.8828125,303616.28125,1010.0498046875,45.37409210205078
74663218,0.020028208675152648,-0.02262350171092109,-9.817716386814096,0.0015427834952218555,-0.0014414265302797914,0.010994329096778046,196332.25,56567.8828125,303616.28125,1010.0498046875,45.37409210205078
74672921,0.023251404347187865,-0.028859615318804543,-9.808663156528452,0.0017313185745818638,-0.002293973068506098,0.02603317143212141,196332.25,56567.8828125,303616.28125,1010.0498046875,45.37409210205078
74683112,0.0945464384875363,-0.021885819726019662,-9.816321161289194,0.0005195196500947796,-0.001194565861285305,0.05671686583946527,196332.25,56567.8828125,303616.28125,1010.0498046875,45.37409210205078
74692916,0.47947940580060333,-0.0059382554322029435,-9.821346096927199,0.0034060039700473735,0.0009632266785212368,0.2703468353866694,191028.921875,59325.6015625,301066.28125,1010.0506591796875,45.373016357421875
74703110,0.4832166468303427,0.03744814431373822,-9.815153889590773,0.009006047309702177,-0.0022155003196365625,0.6356289239048121,191028.921875,59325.6015625,301066.28125,1010.0506591796875,45.373016357421875
74713160,-0.011539113004900514,-0.004595109465673097,-9.804756932193312,0.011835827180510301,-0.006358724883086184,0.8182441444515345,191028.921875,59325.6015625,301066.28125,1010.0506591796875,45.373016357421875
74722984,-0.4673623407680765,-0.08509570473726047,-9.804368786746535,0.008378654406731863,-0.006986654227859476,0.6188977809070704,191028.921875,59325.6015625,301066.28125,1010.0506591796875,45.373016357421875
74733634,-0.4457761610348001,-0.08766235710973991,-9.81697254651216,0.0028577569549436757,-0.004621795708573559,0.2746496052860377,191028.921875,59325.6015625,301066.28125,1010.0506591796875,45.373016357421875
74742909,-0.16893611498663574,-0.04677724951799167,-9.823387913638625,-0.0018440385671798995,-0.0019816799129165202,0.042516846340811064,191028.921875,59325.6015625,301066.28125,1010.0506591796875,45.373016357421875
74753089,-0.005679976423479616,-0.020813823881700166,-9.819032483035597,-0.0024986898849253467,-0.00030537209639246166,-0.021454246583664606,191028.921875,59325.6015625,301066.28125,1010.0506591796875,45.373016357421875
74763196,0.07235421217491478,-0.0024323623805786454,-9.816573910647902,-0.0016624374172185472,0.0016498107190438122,-0.0060380090580226895,191028.921875,59325.6015625,301066.28125,1010.0506591796875,45.373016357421875
74772949,0.6576052939098105,0.04457341766063916,-9.816441349917921,0.003980328482901592,0.002920598625876805,0.3111687750934718,191028.921875,59325.6015625,301066.28125,1010.0506591796875,45.373016357421875
74783137,0.3355748092334494,0.043898186442301146,-9.814195446902785,0.013993200534349222,-0.00421151365552018,0.7239268274425623,191028.921875,59325.6015625,301066.28125,1010.0506591796875,45.373016357421875
74792975,-0.3684821242228411,-0.053132818434445284,-9.796580954792164,0.015436546837155667,-0.008163292239577187,0.6913915930595161,189862.21875,52219.17578125,302716.28125,1010.0469970703125,45.36872100830078
74803102,-0.454990070475664,-0.08948589617392244,-9.808201476337574,0.006185329945002642,-0.0026802651576405875,0.2678799091186287,189862.21875,52219.17578125,302716.28125,1010.0469970703125,45.36872100830078
74813148,-0.16127882541569694,-0.06496353575965585,-9.818855925800465,-0.0014600766988574002,0.0009658181349107512,0.033678217073893735,189862.21875,52219.17578125,302716.28125,1010.0469970703125,45.36872100830078
74822936,0.005003940151605768,-0.037382570449320696,-9.82147090077605,-0.006413463077331934,0.002632272616803039,-0.02946033679881077,189862.21875,52219.17578125,302716.28125,1010.0469970703125,45.36872100830078
74833546,0.03505625932065026,-0.024684709850756548,-9.815599128009938,-0.0071473615642739866,0.003187340405612577,-0.01574719303288441,189862.21875,52219.17578125,302716.28125,1010.0469970703125,45.36872100830078
74842898,0.029161006049785776,-0.023024057392088793,-9.810648604633473,-0.0064269919347120855,0.0036464114215516933,0.001132576416703503,189862.21875,52219.17578125,302716.28125,1010.0469970703125,45.36872100830078
74853126,0.02195366083231942,-0.022192177716700456,-9.817334815265797,-0.004435794002200517,0.0022681767128699907,0.00779424070379753,189862.21875,52219.17578125,302716.28125,1010.0469970703125,45.36872100830078
74863168,0.018461808399830026,-0.025237289611308,-9.811587020160816,-0.0026304494056953523,-0.0005680518100677542,0.007183317774898003,189862.21875,52219.17578125,302716.28125,1010.0469970703125,45.36872100830078
74872918,0.018525723205480737,-0.025105540994612596,-9.807264014484547,-0.0012335272438927028,-0.0022241690188354365,0.004641018090760897,189862.21875,52219.17578125,302716.28125,1010.0469970703125,45.36872100830078
74883207,0.005563314841661615,-0.025971171800104997,-9.807481452228688,2.2432178970951955e-06,-0.0019343568004375807,0.004018249670034836,189862.21875,52219.17578125,302716.28125,1010.0469970703125,45.36872100830078
74892959,0.15122032066770963,-0.03428683779397623,-9.804118046977049,0.0009981933003356952,0.0008961248485542302,0.040425594595642496,195695.828125,50203.92578125,306616.28125,1010.0575561523438,45.37462615966797
74903143,0.7360795204896586,-0.03078011027732508,-9.815435300089842,0.008474167687824954,-0.0009905728703193898,0.5643617209768013,195695.828125,50203.92578125,306616.28125,1010.0575561523438,45.37462615966797
74913169,0.5098108713884013,0.04279762157043798,-9.832257161356932,0.019130681892863502,-0.009355478473549388,1.2242711481427866,195695.828125,50203.92578125,306616.28125,1010.0575561523438,45.37462615966797
74922843,-0.18216797063163348,0.022164371095508173,-9.816888699748045,0.018350948831073036,-0.01178342245573332,1.3829228576993662,195695.828125,50203.92578125,306616.28125,1010.0575561523438,45.37462615966797
74933517,-0.4275612766485555,-0.03820582828679697,-9.810849080302244,0.011361494911841144,-0.008033647686784766,1.064556091723414,195695.828125,50203.92578125,306616.28125,1010.0575561523438,45.37462615966797
74942924,-0.20237844536117144,-0.055067900337368414,-9.802454838969236,0.008039966477087726,-0.00581012388745477,0.7671613392209724,195695.828125,50203.92578125,306616.28125,1010.0575561523438,45.37462615966797
74953112,0.040173429008211414,-0.032102379717022345,-9.807527432658201,0.009113033553591957,-0.006099525858258507,0.7051910456990913,195695.828125,50203.92578125,306616.28125,1010.0575561523438,45.37462615966797
74963218,0.12713398313113622,-0.003611657537609503,-9.810224423624998,0.013562846248975982,-0.008125706129317782,0.7963708338117317,195695.828125,50203.92578125,306616.28125,1010.0575561523438,45.37462615966797
74972942,0.03765169804879598,0.01531146117290838,-9.80672348520947,0.016844689166179885,-0.009431932606344721,0.8475891050672248,195695.828125,50203.92578125,306616.28125,1010.0575561523438,45.37462615966797
74983221,-0.12271808931640216,0.0049785191639362125,-9.801711926676756,0.018408020278445472,-0.008888182715123198,0.7561525401448921,195695.828125,50203.92578125,306616.28125,1010.0575561523438,45.37462615966797
74992921,-0.22571534007247163,-0.04102410189198569,-9.807771382053307,0.01601540921979175,-0.006115183642055759,0.5203351684020183,201529.484375,35885.0078125,303316.28125,1010.0599975585938,45.36818313598633
75003150,-0.0858337143009491,-0.032019143918028625,-9.809701618869713,0.012393762085368493,-0.0035082368998936523,0.3213191337988994,201529.484375,35885.0078125,303316.28125,1010.0599975585938,45.36818313598633
75013140,0.19682048917357253,0.02901539393378183,-9.813231167514733,0.011709219503929474,-0.0033323321844599355,0.3451258249686382,201529.484375,35885.0078125,303316.28125,1010.0599975585938,45.36818313598633
75022965,0.3074378809386902,0.06312319823218271,-9.807524380405358,0.014068610694041112,-0.005983584036972293,0.5860304541991375,201529.484375,35885.0078125,303316.28125,1010.0599975585938,45.36818313598633
75033583,0.15826392829958724,0.017741488298901764,-9.81454819174569,0.01446562140040622,-0.008698021935220727,0.7726491995261333,201529.484375,35885.0078125,303316.28125,1010.0599975585938,45.36818313598633
75042862,0.02443298981134223,-0.04381929151105002,-9.806883511264733,0.01177555667959676,-0.010696564743217,0.8250962205336712,201529.484375,35885.0078125,303316.28125,1010.0599975585938,45.36818313598633
75053097,-0.026801944667655953,-0.07388008944081381,-9.809234318454674,0.00696766256146655,-0.011591248156424531,0.7944275446341655,201529.484375,35885.0078125,303316.28125,1010.0599975585938,45.36818313598633
75063202,0.025133631234806053,-0.051026990631094726,-9.815397915561608,0.003942571308245515,-0.01012333290457345,0.7716970153258464,201529.484375,35885.0078125,303316.28125,1010.0599975585938,45.36818313598633
75072934,-0.00279670297558976,-0.047527356067171844,-9.812922177036217,0.0011743869006313433,-0.008323823975320825,0.799410552542033,201529.484375,35885.0078125,303316.28125,1010.0599975585938,45.36818313598633
75083145,-0.14350961237605286,-0.06293509341167525,-9.808844265659264,-0.001196479231337453,-0.005841769220229158,0.7735490508483074,201529.484375,35885.0078125,303316.28125,1010.0599975585938,45.36818313598633
75092912,-0.21039877037094534,-0.077261802373223,-9.810195723987347,-0.003669145829255451,-0.0037899000714829937,0.6605401239910819,200881.28125,25195.919921875,304416.25,1010.0321655273438,45.37355422973633
75103157,-0.1648247311501354,-0.07054511514096706,-9.808423797107464,-0.005673989732960929,-0.0016122053754812852,0.5343272886791922,200881.28125,25195.919921875,304416.25,1010.0321655273438,45.37355422973633
75113126,-0.07143396834419669,-0.05464888047962635,-9.814169684863812,-0.006008059331427087,-0.001941077379073836,0.49050821881682655,200881.28125,25195.919921875,304416.25,1010.0321655273438,45.37355422973633
75122970,-0.050116352239117035,-0.051963389483980826,-9.810132781482464,-0.0033095018800597086,-0.003940037885244824,0.5250647864857413,200881.28125,25195.919921875,304416.25,1010.0321655273438,45.37355422973633
75133514,-0.09532480637119711,-0.06165601369529217,-9.809869567371136,-0.00319479087854432,-0.005423526014696695,0.5367095075169303,200881.28125,25195.919921875,304416.25,1010.0321655273438,45.37355422973633
75142908,-0.02947562883184851,-0.04422371890931576,-9.809202949023968,-0.002385506718630661,-0.007178026452224588,0.5502634845295645,200881.28125,25195.919921875,304416.25,1010.0321655273438,45.37355422973633
75153120,0.10243793626739084,-0.02698600348620861,-9.814295569873577,0.0019124924808491574,-0.010221376750182247,0.6572120986500479,200881.28125,25195.919921875,304416.25,1010.0321655273438,45.37355422973633
75163177,0.2065320094437748,-0.03273087051301449,-9.821359435535198,0.007397837857504617,-0.013471957031201458,0.8457293115177847,200881.28125,25195.919921875,304416.25,1010.0321655273438,45.37355422973633
75172925,0.21560704012824594,-0.05686208289652317,-9.812976638293987,0.009527680384715326,-0.015143621447991466,0.992937823347161,200881.28125,25195.919921875,304416.25,1010.0321655273438,45.37355422973633
75183179,0.07456039873374998,-0.04955579396872967,-9.812617103076702,0.008572913626929052,-0.015087489705096817,1.0223828754940727,200881.28125,25195.919921875,304416.25,1010.0321655273438,45.37355422973633
75192925,-0.09704617967523355,-0.033981944637411665,-9.81634225677832,0.0067410055750803215,-0.01191753474357337,0.8718056178720767,199196.015625,10004.9052734375,299566.25,1010.0443725585938,45.37892532348633
75203131,-0.10818417181886453,-0.03419100047838075,-9.814716242068847,0.0044380557926193935,-0.008558743161287012,0.6736135578783328,199196.015625,10004.9052734375,299566.25,1010.0443725585938,45.37892532348633
75213219,0.049762573114859876,-0.0397782579232393,-9.805704019778808,0.0036384944075540764,-0.007000726175632181,0.6149041748674685,199196.015625,10004.9052734375,299566.25,1010.0443725585938,45.37892532348633
75222871,0.18271819690548163,-0.026673133688086104,-9.808584116214355,0.0066902871446506244,-0.00869854958089799,0.7866615749033267,199196.015625,10004.9052734375,299566.25,1010.0443725585938,45.37892532348633
75233620,0.2727982271679519,0.01732213495481627,-9.812203310245117,0.012971893997658898,-0.012082180467571917,1.0940556622179325,199196.015625,10004.9052734375,299566.25,1010.0443725585938,45.37892532348633
75242902,0.195648992455828,0.08362082837331908,-9.80701436828955,0.01745247572826307,-0.015039360609974566,1.3965066767366703,199196.015625,10004.9052734375,299566.25,1010.0443725585938,45.37892532348633
75253143,-0.008141769074571314,0.08909325001943724,-9.808914087527832,0.016652881281246354,-0.014261460391010942,1.4761558867128666,199196.015625,10004.9052734375,299566.25,1010.0443725585938,45.37892532348633
75263193,-0.16326416840471047,0.029144388420468736,-9.821837328189453,0.012564834320713689,-0.012308117461528482,1.3822372055681522,199196.015625,10004.9052734375,299566.25,1010.0443725585938,45.37892532348633
75272931,-0.24507625212587136,-0.030690650658720564,-9.812477014773926,0.007576465254445483,-0.010246393730070295,1.225506672921973,199196.015625,10004.9052734375,299566.25,1010.0443725585938,45.37892532348633
75283133,-0.2948075067035081,-0.047522182779425215,-9.813323877566894,0.005130567235668109,-0.008846479927327337,1.082854518953162,199196.015625,10004.9052734375,299566.25,1010.0443725585938,45.37892532348633
75292910,-0.30272073248909415,-0.0654674960353896,-9.804147521472698,0.003040030053605567,-0.005884738839726782,0.9529257021465994,200574.875,-11526.494140625,307216.28125,1010.0639038085938,45.37355422973633
75303115,-0.3027341137318462,-0.05574902948527782,-9.811335364795452,0.0023675169002015696,-0.0022627727273217216,0.7909094892063834,200574.875,-11526.494140625,307216.28125,1010.0639038085938,45.37355422973633
75313137,-0.20605460504578055,-0.02611886766343563,-9.812969008899456,0.0026336397647608624,0.00013210141632530835,0.627550324014733,200574.875,-11526.494140625,307216.28125,1010.0639038085938,45.37355422973633
75322947,-0.12427916327999533,0.0043452674469426356,-9.808460990405804,0.00606390406822158,-0.0015280724880582467,0.5900140605488516,200574.875,-11526.494140625,307216.28125,1010.0639038085938,45.37355422973633
75333630,-0.04882534543560446,-0.009928078023485831,-9.81013373515678,0.009957899260123498,-0.003931280426245071,0.6408310733357169,200574.875,-11526.494140625,307216.28125,1010.0639038085938,45.37355422973633
75342852,-0.009072139361366638,-0.0032883515635058203,-9.815840522266155,0.012141442778309114,-0.006163375187229252,0.6809368930378653,200574.875,-11526.494140625,307216.28125,1010.0639038085938,45.37355422973633
75353116,0.02972346221520006,-0.004491948155455283,-9.815806189990765,0.015640542763074167,-0.009040918867599106,0.773228248170922,200574.875,-11526.494140625,307216.28125,1010.0639038085938,45.37355422973633
75363188,0.09224099715663492,-0.057113111583285026,-9.814495841480023,0.014609068552752263,-0.012015768993209934,0.8924763999500968,200574.875,-11526.494140625,307216.28125,1010.0639038085938,45.37355422973633
75372939,0.06690608759833871,-0.030146249202780417,-9.810795585132366,0.012561759832103975,-0.010933309528540706,0.910980602315972,200574.875,-11526.494140625,307216.28125,1010.0639038085938,45.37355422973633
75383143,0.055225918567314736,-0.012926608888201407,-9.807836333728558,0.013655109251638181,-0.009098508130323028,0.8985510669270255,200574.875,-11526.494140625,307216.28125,1010.0639038085938,45.37355422973633
75393028,0.03325162356683187,-0.035381186522633,-9.807486424662596,0.013718106104067554,-0.00819518558735182,0.8868528303479866,196014.046875,-30088.048828125,300916.25,1010.038818359375,45.37462615966797
75403127,-0.02805238315871783,-0.04777166596809046,-9.81498707316113,0.011736352248123874,-0.00788386633673837,0.837348967490168,196014.046875,-30088.048828125,300916.25,1010.038818359375,45.37462615966797
75413122,-0.038684331868205746,-0.051488887287765905,-9.818317303874021,0.009297896428040256,-0.006560232509469292,0.7793901857709602,196014.046875,-30088.048828125,300916.25,1010.038818359375,45.37462615966797
75422981,-0.06072653183749743,-0.056276488818317816,-9.806542287089353,0.008127595549455871,-0.0065134349470787264,0.7688440975522712,196014.046875,-30088.048828125,300916.25,1010.038818359375,45.37462615966797
75433588,-0.020845205579314907,-0.05672244704523699,-9.803473363139158,0.007797893388203372,-0.00811279986107876,0.7930909094190315,196014.046875,-30088.048828125,300916.25,1010.038818359375,45.37462615966797
75442858,0.006538650896038334,-0.06069630361357348,-9.815023312785154,0.006700033107779016,-0.00916857786530783,0.8122168478345588,196014.046875,-30088.048828125,300916.25,1010.038818359375,45.37462615966797
75453110,0.012489362563576023,-0.03300980827966349,-9.81748951456738,0.007841237140825977,-0.010399069190567038,0.8538360890721992,196014.046875,-30088.048828125,300916.25,1010.038818359375,45.37462615966797
75463231,0.05212614959069661,-0.02845299593368189,-9.816753277995115,0.011361497705808868,-0.01120460733825495,0.9422982630109504,196014.046875,-30088.048828125,300916.25,1010.038818359375,45.37462615966797
75472898,0.050732512902106564,-0.046969625867992804,-9.821375737406736,0.011982036074630012,-0.011380741857533953,1.005575149950953,196014.046875,-30088.048828125,300916.25,1010.038818359375,45.37462615966797
75483184,0.09188163088598422,-0.08871224126973765,-9.821061024882322,0.012290499424568405,-0.010894071795588038,1.0514132675504404,196014.046875,-30088.048828125,300916.25,1010.038818359375,45.37462615966797
75492914,0.07422960732330885,-0.09553499755218464,-9.816187545482014,0.011863534204654136,-0.01082824539891419,1.0881527570833727,191453.21875,-50558.7890625,309766.28125,1010.0311279296875,45.36388397216797
75503125,0.010112609679003626,-0.055470692485122264,-9.815066978160237,0.011982768639914432,-0.010235753809427591,1.0608299879183336,191453.21875,-50558.7890625,309766.28125,1010.0311279296875,45.36388397216797
75513169,-0.009373348241547674,-0.04200178992703396,-9.816907569590901,0.012372080102555194,-0.009321216461574407,1.022009125148253,191453.21875,-50558.7890625,309766.28125,1010.0311279296875,45.36388397216797
75522964,-0.002881746774415106,-0.03601425003960568,-9.813664123240804,0.012425752222530284,-0.009140276317810388,0.996287038718657,191453.21875,-50558.7890625,309766.28125,1010.0311279296875,45.36388397216797
75533549,0.023169796878596216,-0.039799644171742976,-9.80414073151717,0.011429525777689853,-0.00805356909087834,0.9530868438829941,191453.21875,-50558.7890625,309766.28125,1010.0311279296875,45.36388397216797
75542903,0.03631002452423182,-0.0525813647802158,-9.810866996470784,0.010080199554554858,-0.007635694896196695,0.9007326869120164,191453.21875,-50558.7890625,309766.28125,1010.0311279296875,45.36388397216797
75553109,0.05142630633165446,-0.08202884581640202,-9.805870696727132,0.007043348491184157,-0.008291647737240167,0.8705148605455918,191453.21875,-50558.7890625,309766.28125,1010.0311279296875,45.36388397216797
75563175,0.054993409628172785,-0.09066045147135693,-9.804152175608968,0.005514628119759005,-0.00975753922513661,0.8973293809046311,191453.21875,-50558.7890625,309766.28125,1010.0311279296875,45.36388397216797
75572918,0.09782158021082488,-0.09112611275866467,-9.805740043345784,0.0068465325571519554,-0.011116101374244066,0.9835926798929734,191453.21875,-50558.7890625,309766.28125,1010.0311279296875,45.36388397216797
75583169,0.12307617437293139,-0.1169614962092771,-9.803619071666096,0.007431317452333611,-0.012122376789664598,1.067671409045653,191453.21875,-50558.7890625,309766.28125,1010.0311279296875,45.36388397216797
75592938,0.0402710122943315,-0.10614692926961133,-9.805542785494891,0.005287337271965301,-0.011881381861654737,1.0645515670100132,183604.3125,-63710.98046875,303616.28125,1010.0626831054688,45.37194061279297
75603118,-0.08433838729258447,-0.04195988406050155,-9.81006224808034,0.0027371958517499323,-0.01099595486351631,0.8966718663493074,183604.3125,-63710.98046875,303616.28125,1010.0626831054688,45.37194061279297
75613202,-0.07287030462618738,-0.03816522140610168,-9.809748489230243,0.0018037043432734962,-0.009111256927041032,0.7104724993029512,183604.3125,-63710.98046875,303616.28125,1010.0626831054688,45.37194061279297
75622942,-0.010225904923638396,-0.044574791980862116,-9.818772155612079,0.003258039864248788,-0.007700430817691305,0.6374767770090974,183604.3125,-63710.98046875,303616.28125,1010.0626831054688,45.37194061279297
75633660,0.09751446004513831,-0.08192561794626663,-9.824009734957782,0.0038661148087151403,-0.009447824798313596,0.6986304272929109,183604.3125,-63710.98046875,303616.28125,1010.0626831054688,45.37194061279297
75642891,0.10089545528892607,-0.07454763953196952,-9.812755424349872,0.0043448649034865255,-0.010784960008946874,0.8178702344218172,183604.3125,-63710.98046875,303616.28125,1010.0626831054688,45.37194061279297
75653100,0.09994618240300746,-0.08957337443339775,-9.805684882968036,0.005508424869275844,-0.010921456508127668,0.8844246615687288,183604.3125,-63710.98046875,303616.28125,1010.0626831054688,45.37194061279297
75663159,0.055232672202626176,-0.08616401855456779,-9.812377769320575,0.0057510628053017016,-0.011531089089600065,0.9104879249850191,183604.3125,-63710.98046875,303616.28125,1010.0626831054688,45.37194061279297
75672991,0.027285373020211168,-0.07528408844578216,-9.812908012240497,0.005155007044322049,-0.01098627562799833,0.8792512764254488,183604.3125,-63710.98046875,303616.28125,1010.0626831054688,45.37194061279297
75683133,-0.015046162348946623,-0.051739039314865565,-9.81614192184743,0.005258339146620786,-0.009760783642319658,0.8441247095385469,183604.3125,-63710.98046875,303616.28125,1010.0626831054688,45.37194061279297
75692939,-0.06912669047814468,0.005394278176225065,-9.811130375728293,0.005945597792302339,-0.00828144010560574,0.8260916023826138,176816.078125,-90227.4765625,303466.25,1010.0484008789062,45.37623977661133
75703114,-0.0958939592550383,-0.00041510342796957644,-9.80932125555007,0.005179359128956763,-0.007234085448402781,0.8230524807548062,176816.078125,-90227.4765625,303466.25,1010.0484008789062,45.37623977661133
75713147,-0.1453847686956511,0.029998442240155576,-9.799363942012473,0.004354736784731118,-0.00670133913340034,0.7745785265540616,176816.078125,-90227.4765625,303466.25,1010.0484008789062,45.37623977661133
75722946,-0.09213958188992599,0.014530291862882017,-9.795701832637473,0.00468429319400069,-0.006369768273401875,0.7066570668792264,176816.078125,-90227.4765625,303466.25,1010.0484008789062,45.37623977661133
75733507,-0.052571232170878446,-0.02231664388617194,-9.796278805598899,0.004419737978165118,-0.0060642520937508534,0.6602193265532986,176816.078125,-90227.4765625,303466.25,1010.0484008789062,45.37623977661133
75742972,-0.019624317736445462,-0.06418090491732276,-9.807679982051535,0.0032042304689782544,-0.006846467595863957,0.6642748265838162,176816.078125,-90227.4765625,303466.25,1010.0484008789062,45.37623977661133
75753153,0.03841069459813973,-0.09033115572472727,-9.815593571529075,0.004943186899905173,-0.008530448753703256,0.7394431977843777,176816.078125,-90227.4765625,303466.25,1010.0484008789062,45.37623977661133
75763202,0.12567157417434593,-0.11115775621672785,-9.819681019649192,0.009787715988491742,-0.009052401040065904,0.8677235990142361,176816.078125,-90227.4765625,303466.25,1010.0484008789062,45.37623977661133
75772980,0.19678794339198014,-0.12106604865928805,-9.819953770503684,0.013037799874578683,-0.010120068308282514,1.040547862586929,176816.078125,-90227.4765625,303466.25,1010.0484008789062,45.37623977661133
75783158,0.22318874791163346,-0.108362039003425,-9.820923657283469,0.01374828724030134,-0.011845632087755818,1.2495440393065946,176816.078125,-90227.4765625,303466.25,1010.0484008789062,45.37623977661133
75792920,0.09746970765663399,-0.06569828936666333,-9.815195025072976,0.0115772749981944,-0.014350226530236786,1.3766562585266584,171300.65625,-101682.6015625,300316.25,1010.0636596679688,45.37731170654297
75803160,-0.016778368797170984,-0.04901022190064275,-9.815219820605202,0.009494429802066509,-0.01290878039727885,1.3810746316345686,171300.65625,-101682.6015625,300316.25,1010.0636596679688,45.37731170654297
75813167,-0.08511550381408917,-0.05012488091200673,-9.808404863940163,0.005347844561106391,-0.01200623755286414,1.3126957063110822,171300.65625,-101682.6015625,300316.25,1010.0636596679688,45.37731170654297
75822963,-0.18476383044944988,0.021190541742145186,-9.80597490178196,0.0009024374871615844,-0.011502861426574772,1.1984765176208967,171300.65625,-101682.6015625,300316.25,1010.0636596679688,45.37731170654297
75833494,-0.3000643368028282,0.07436749613076366,-9.804962099657937,-0.006658750238352589,-0.011776788541478699,1.0650468711288923,171300.65625,-101682.6015625,300316.25,1010.0636596679688,45.37731170654297
75842917,-0.26754401281105267,0.035206320641337996,-9.80431360112278,-0.01130112691455441,-0.010535958604318683,0.8956251983078474,171300.65625,-101682.6015625,300316.25,1010.0636596679688,45.37731170654297
75853164,-0.16954990878330456,-0.01851513707846486,-9.803492487536355,-0.012620505528980069,-0.011249949605567043,0.8106970433624738,171300.65625,-101682.6015625,300316.25,1010.0636596679688,45.37731170654297
75863207,-0.07340748265014874,-0.03313341462820851,-9.808149279223366,-0.009806557210617833,-0.011864593633813446,0.7326635960968488,171300.65625,-101682.6015625,300316.25,1010.0636596679688,45.37731170654297
75872958,0.023223258260619772,-0.031204027177990312,-9.81437391148655,-0.005490376731836371,-0.010949377351803367,0.5788376573952192,171300.65625,-101682.6015625,300316.25,1010.0636596679688,45.37731170654297
75883135,0.023680142763984335,-0.03998881304472768,-9.817556322680398,-0.003147661570915155,-0.008969019548399036,0.4534884635838026,171300.65625,-101682.6015625,300316.25,1010.0636596679688,45.37731170654297
75892869,0.025491849085822693,-0.06025956254988163,-9.812796393848187,-0.0018616254303853406,-0.006768250572990513,0.39090414863021156,156239.28125,-123744.34375,303766.28125,1010.0592041015625,45.37355422973633
75903110,0.02315145035697519,-0.06232067999034374,-9.812992850757366,0.0012092338081200228,-0.0057860875646880625,0.37731679301650306,156239.28125,-123744.34375,303766.28125,1010.0592041015625,45.37355422973633
75913188,-0.04320171425627173,-0.018936932651095084,-9.803185264087444,0.0021354722928006754,-0.00457930864350114,0.3749898872891166,156239.28125,-123744.34375,303766.28125,1010.0592041015625,45.37355422973633
75922971,-0.14792855779217184,0.11641536596626789,-9.801380912280804,0.0001749387235830159,-0.0025243737879506126,0.3011790118733146,156239.28125,-123744.34375,303766.28125,1010.0592041015625,45.37355422973633
75933664,-0.11366442541168631,0.1119408899864629,-9.805519858814007,7.414951026277553e-05,0.0007544419816398248,0.1280733547726371,156239.28125,-123744.34375,303766.28125,1010.0592041015625,45.37355422973633
75942890,-0.032185382643207916,0.016736208828397103,-9.802799979663616,-0.0007126262855965092,0.0015176170593762025,0.013713356628427714,156239.28125,-123744.34375,303766.28125,1010.0592041015625,45.37355422973633
75953167,-0.01296954552219809,-0.01620379891782253,-9.80193118236137,-0.0005095784356600984,0.0010196683318057283,-0.011864090748717577,156239.28125,-123744.34375,303766.28125,1010.0592041015625,45.37355422973633
75963294,-0.01218073765324057,-0.037314080266050986,-9.810009757495648,0.0007408389726404653,0.0005473547819704935,-0.005287536364635021,156239.28125,-123744.34375,303766.28125,1010.0592041015625,45.37355422973633
75972952,0.05515923773361742,-0.5344765489974543,-9.81740740916801,0.012249408210416562,-2.4593024777136777e-05,0.22377490024955055,156239.28125,-123744.34375,303766.28125,1010.0592041015625,45.37355422973633
75983155,0.23386424084617197,-0.9398341780581996,-9.833399573779827,0.02085209164281679,-0.00955548110933218,1.196249147466729,156239.28125,-123744.34375,303766.28125,1010.0592041015625,45.37355422973633
75992966,0.16525038536194891,-0.31020265300381133,-9.821037132113544,0.02086284585902766,-0.018307061522988298,1.8584656466761509,153481.578125,-129684.0390625,310516.28125,1010.0263061523438,45.37194061279297
76003088,-0.09788452629443078,0.39667171757113984,-9.796094734042255,0.015894636666870868,-0.0179387849120178,1.6561619986811558,153481.578125,-129684.0390625,310516.28125,1010.0263061523438,45.37194061279297
76013150,-0.14164296333189874,0.45649481336963227,-9.801229316561786,0.011941417275465285,-0.012518866576043584,1.0561051120081821,153481.578125,-129684.0390625,310516.28125,1010.0263061523438,45.37194061279297
76022953,-0.04381841216679483,0.13629326741588166,-9.80525668319997,0.011132696798539912,-0.008024715475527265,0.6620409240046419,153481.578125,-129684.0390625,310516.28125,1010.0263061523438,45.37194061279297
76033603,0.024705747324267335,-0.1318706185053582,-9.813247520297137,0.012097208915746963,-0.00580795261242769,0.6304046263018526,153481.578125,-129684.0390625,310516.28125,1010.0263061523438,45.37194061279297
76042956,0.0007590224922093824,-0.13476811390924404,-9.819022018282977,0.011956968499816215,-0.006904459215489843,0.7651189913073457,153481.578125,-129684.0390625,310516.28125,1010.0263061523438,45.37194061279297
76053152,-0.06956497375365167,0.00019304971587708053,-9.814122993319598,0.009710290624297416,-0.007643030613450029,0.8253292788782991,153481.578125,-129684.0390625,310516.28125,1010.0263061523438,45.37194061279297
76063216,-0.12102951650019556,0.17452845494639924,-9.806399185031024,0.006290098341650521,-0.00655004999765537,0.6837026824274934,153481.578125,-129684.0390625,310516.28125,1010.0263061523438,45.37194061279297
76072893,-0.12881324235793024,0.28099409263026764,-9.805120307772723,0.001825411493427312,-0.0037964194843300384,0.3961545874396243,153481.578125,-129684.0390625,310516.28125,1010.0263061523438,45.37194061279297
76083136,-0.060497393649777464,0.13418099801433137,-9.815440971224872,-0.0010224616466991548,-0.0005060277534869265,0.10344005870017192,153481.578125,-129684.0390625,310516.28125,1010.0263061523438,45.37194061279297
76092945,-0.020556279641529507,-0.006627621692270935,-9.819815525806241,-0.0020185195643415074,0.0012144029797980758,-0.011745105752655435,135874.609375,-141563.453125,303766.28125,1010.0387573242188,45.37946319580078
76103106,-0.02908942214860577,-0.07049311567530125,-9.819459805286222,-0.0016737437143882136,0.00034437318853980034,-0.012092833662339616,135874.609375,-141563.453125,303766.28125,1010.0387573242188,45.37946319580078
76113156,-0.28792481980933804,-0.6873134473381945,-9.812114605701261,0.0030891780007670303,-0.007529782461375537,0.4745375362467681,135874.609375,-141563.453125,303766.28125,1010.0387573242188,45.37946319580078
76122951,-0.408185982328793,-0.55309171472177,-9.809570202625089,0.0038309047196100135,-0.017827021753788534,1.3953420964312468,135874.609375,-141563.453125,303766.28125,1010.0387573242188,45.37946319580078
76133555,-0.2549913462223019,0.046028544563203155,-9.808700451648527,0.00525794026554028,-0.020292238196731153,1.7349647131991301,135874.609375,-141563.453125,303766.28125,1010.0387573242188,45.37946319580078
76142956,0.028275715935090595,0.2842130264224103,-9.804985890186124,0.003678388540823259,-0.01708404613137299,1.4443694201540862,135874.609375,-141563.453125,303766.28125,1010.0387573242188,45.37946319580078
76153134,0.23118621744499546,0.2817023595751813,-9.803130039966398,0.0032288850016931672,-0.012862300364673677,0.9971314517092619,135874.609375,-141563.453125,303766.28125,1010.0387573242188,45.37946319580078
76163161,0.30806732811317783,0.19647069777861148,-9.801630863941007,0.00822222733050982,-0.007616848549247327,0.5947282758784208,135874.609375,-141563.453125,303766.28125,1010.0387573242188,45.37946319580078
76172930,0.2200881455122028,0.10794079806223422,-9.799461254871183,0.012133419859413304,-0.0025656033348297504,0.26035626207112417,135874.609375,-141563.453125,303766.28125,1010.0387573242188,45.37946319580078
76183159,0.06045500450120311,-0.004216986340136231,-9.803643116748624,0.01203935627937714,-0.0007585648371843424,0.09418375019549473,135874.609375,-141563.453125,303766.28125,1010.0387573242188,45.37946319580078
76192960,-0.15380092215322794,-0.24723462014678077,-9.814092424411752,0.01109397706035209,-0.0027855488721138,0.25221186408589663,135662.46875,-155352.0,307366.28125,1010.067626953125,45.37409210205078
76203103,-0.22070284437918009,-0.27659281342509345,-9.814910676975229,0.008616789397035363,-0.008089712892458415,0.7326706005055743,135662.46875,-155352.0,307366.28125,1010.067626953125,45.37409210205078
76213195,-0.11101384711050333,-0.12104335799100951,-9.814985063571909,0.007191629301939728,-0.012117725868508792,1.0468096686322528,135662.46875,-155352.0,307366.28125,1010.067626953125,45.37409210205078
76222948,0.014711854340798247,-0.07608162983539657,-9.81420972635267,0.006820662565712454,-0.014541343857333636,1.1356977177579242,135662.46875,-155352.0,307366.28125,1010.067626953125,45.37409210205078
76233634,0.07999041711614563,-0.07673572748187141,-9.810789850254038,0.0021259974820507788,-0.015111704428479648,1.0818970156628924,135662.46875,-155352.0,307366.28125,1010.067626953125,45.37409210205078
76242834,0.0317686286888188,-0.10803196764770107,-9.818412569065073,-0.0007257707983286954,-0.01575735032258985,0.9936038208920793,135662.46875,-155352.0,307366.28125,1010.067626953125,45.37409210205078
76253138,0.015667100729710448,-0.18632488697054939,-9.815398958225229,-0.001899353890496669,-0.017171214406177974,1.024586196037038,135662.46875,-155352.0,307366.28125,1010.067626953125,45.37409210205078
76263164,-0.04764081787847818,-0.1508985645997818,-9.810590532321909,-0.0054284691212730385,-0.01880992490498779,1.1194448424298602,135662.46875,-155352.0,307366.28125,1010.067626953125,45.37409210205078
76272977,-0.08058431994699777,-0.09888875856283263,-9.814703729648569,-0.004900325402434347,-0.01790795575527904,1.161002154441579,135662.46875,-155352.0,307366.28125,1010.067626953125,45.37409210205078
76283198,-0.07736461114668192,-0.127727724604636,-9.811483171482065,-0.0030159694941745974,-0.018696271885917163,1.1912248087842303,135662.46875,-155352.0,307366.28125,1010.067626953125,45.37409210205078
76292851,-0.08531549965015284,-0.12450997838713906,-9.813718546001283,-0.0007528857688704205,-0.01870536601797109,1.2461768641931474,123358.8125,-164261.5625,307216.25,1010.0316772460938,45.37086868286133
76303075,-0.060997668849142705,-0.11174273146279834,-9.816322076885072,0.0009861232817819643,-0.01909987239793306,1.2690021052820146,123358.8125,-164261.5625,307216.25,1010.0316772460938,45.37086868286133
76313160,-0.008405801104220068,-0.10648598456718705,-9.819145906535951,0.0036926095478883314,-0.017926484185013823,1.272537018345064,123358.8125,-164261.5625,307216.25,1010.0316772460938,45.37086868286133
76323007,0.048621183065859164,-0.04835633123256944,-9.813284624187318,0.004482770628546767,-0.016852821993384413,1.2263740554315508,123358.8125,-164261.5625,307216.25,1010.0316772460938,45.37086868286133
76333601,0.057525625256983126,0.05692229485175826,-9.803890932170717,0.002552164077078395,-0.016671148898754172,1.1475227132303178,123358.8125,-164261.5625,307216.25,1010.0316772460938,45.37086868286133
76342901,0.03930333609708914,0.08306653117797591,-9.805762994853822,0.0003320759558299857,-0.015454309831116252,1.0243627086145342,123358.8125,-164261.5625,307216.25,1010.0316772460938,45.37086868286133
76353112,0.009097110284653986,0.13293259656093337,-9.81525300797638,-0.0020213906548270655,-0.01376409905657535,0.8985392108423172,123358.8125,-164261.5625,307216.25,1010.0316772460938,45.37086868286133
76363175,-0.01422857140174738,0.11782334065101363,-9.806962717143861,-0.001512177697131939,-0.011814610871229224,0.7532515182954728,123358.8125,-164261.5625,307216.25,1010.0316772460938,45.37086868286133
76372910,-0.04809582625499598,-0.18420600080826066,-9.81350683030304,0.00020674397705069958,-0.011088877754960112,0.7251680150491654,123358.8125,-164261.5625,307216.25,1010.0316772460938,45.37086868286133
76383114,-0.07579735313526026,-0.26296970928051255,-9.812483537761537,0.0006037743867090273,-0.011481576437804751,0.8386039391023575,123358.8125,-164261.5625,307216.25,1010.0316772460938,45.37086868286133
76392930,-0.008950009477188381,-0.15242713552461584,-9.8007181723742,0.0030884393666440017,-0.01219028163988807,0.9084241786177552,101403.1484375,-184944.421875,298066.25,1010.0556640625,45.375701904296875
76403118,-0.027218572330524715,-0.09284186039613207,-9.802334650340509,0.006509076588650919,-0.011747868026687883,0.9105449714835083,101403.1484375,-184944.421875,298066.25,1010.0556640625,45.375701904296875
76413190,-0.04003474069838742,-0.009764301148519117,-9.815973146739434,0.008564973966082315,-0.009990038576617025,0.8734355964835083,101403.1484375,-184944.421875,298066.25,1010.0556640625,45.375701904296875
76422973,-0.037581279408981594,-0.01856927063809355,-9.827751978221368,0.009835160122116784,-0.009024059626354955,0.8345067300970948,101403.1484375,-184944.421875,298066.25,1010.0556640625,45.375701904296875
76433553,-0.05285908235316494,0.11456022921456377,-9.807486398997735,0.008201168634792547,-0.008745134103193067,0.795376221197406,101403.1484375,-184944.421875,298066.25,1010.0556640625,45.375701904296875
76442897,-0.01747698290353039,0.19986787203206102,-9.796283586802911,0.006916176312466837,-0.00761027889613726,0.7080828943427002,101403.1484375,-184944.421875,298066.25,1010.0556640625,45.375701904296875
76453110,0.018427491652915684,0.2285941517676262,-9.803655489268731,0.006859726522912956,-0.006595039035274766,0.5937194028075135,101403.1484375,-184944.421875,298066.25,1010.0556640625,45.375701904296875
76463151,-0.005315273535301479,0.09625360134495775,-9.815019472423028,0.008367991790970544,-0.006431254784657739,0.5050008096869385,101403.1484375,-184944.421875,298066.25,1010.0556640625,45.375701904296875
76472960,-0.05595458997493008,-0.16079882767544706,-9.816419466319513,0.009105464228292684,-0.0067398587643048985,0.5403557815726197,101403.1484375,-184944.421875,298066.25,1010.0556640625,45.375701904296875
76483140,-0.0878114993691943,-0.16892478850232084,-9.808831079783868,0.008337722875972967,-0.007343332509591363,0.6470662155325806,101403.1484375,-184944.421875,298066.25,1010.0556640625,45.375701904296875
76492915,-0.07427730219561557,-0.034432315545618764,-9.797842818645373,0.007919040757883744,-0.007644128022336025,0.6949590941444512,86023.578125,-189081.015625,297016.28125,1010.0746459960938,45.37677764892578
76503150,-0.037496244480199614,-0.005748787241518727,-9.807666617778674,0.00849903120445128,-0.007366430447988768,0.6902643939033624,86023.578125,-189081.015625,297016.28125,1010.0746459960938,45.37677764892578
76513133,-0.0563505794306467,-0.03619524957472109,-9.811986762431994,0.009590979914833264,-0.007865486168854494,0.6954155465141412,86023.578125,-189081.015625,297016.28125,1010.0746459960938,45.37677764892578
76522920,-0.09947249846655826,-0.11470631025591516,-9.81632121220006,0.011031699616183,-0.00861175261958744,0.7558209200874444,86023.578125,-189081.015625,297016.28125,1010.0746459960938,45.37677764892578
76533607,-0.09438828187186221,-0.11793616977380239,-9.816083747295275,0.01050289652096148,-0.00962238383068945,0.831285168744671,86023.578125,-189081.015625,297016.28125,1010.0746459960938,45.37677764892578
76542915,-0.10171910183627109,0.08066867170995451,-9.803904372600451,0.00851083571808453,-0.010064237719022293,0.8601839443222161,86023.578125,-189081.015625,297016.28125,1010.0746459960938,45.37677764892578
76553088,-0.04203066038090686,0.27445490537351347,-9.808076697734728,0.006681991990376671,-0.008543861997865696,0.787133922196972,86023.578125,-189081.015625,297016.28125,1010.0746459960938,45.37677764892578
76563206,-0.04468878166872958,0.23514295993512846,-9.808530646709338,0.006013529624510964,-0.007647435148798485,0.6761337419525262,86023.578125,-189081.015625,297016.28125,1010.0746459960938,45.37677764892578
76572971,-0.09132005827624301,0.1033083933419583,-9.816282111553088,0.004389368246961792,-0.006798725077502985,0.6100496550575372,86023.578125,-189081.015625,297016.28125,1010.0746459960938,45.37677764892578
76583207,-0.14597647445399264,-0.020006918626368275,-9.818317252544299,0.0040962782387625775,-0.007623344162099619,0.6207493444458123,86023.578125,-189081.015625,297016.28125,1010.0746459960938,45.37677764892578
76592921,-0.18718216079891103,-0.08313409595884469,-9.8119563214296,0.004200835127716473,-0.009519083548239535,0.7113275275460913,67886.3046875,-191944.796875,299116.28125,1010.0563354492188,45.378387451171875
76603082,-0.09955601650894064,-0.01579100250400689,-9.821753417682041,0.006552399017249754,-0.010712322901836699,0.8007986889116003,67886.3046875,-191944.796875,299116.28125,1010.0563354492188,45.378387451171875
76613182,0.0968840841609202,0.11152233571611259,-9.809271728228916,0.0079111781645171,-0.009482396889380282,0.7815426335565283,67886.3046875,-191944.796875,299116.28125,1010.0563354492188,45.378387451171875
76622968,0.20064551126539332,0.1851493755062661,-9.812348281573643,0.007894703999494726,-0.007860097225657767,0.6274105653993323,67886.3046875,-191944.796875,299116.28125,1010.0563354492188,45.378387451171875
76633612,-0.013572404865626275,0.06113526613317344,-9.81631079835831,0.0031173577274731905,-0.008566908661178416,0.5189496622316077,67886.3046875,-191944.796875,299116.28125,1010.0563354492188,45.378387451171875
76642889,-0.2753518547457494,-0.09588476813532498,-9.81402102632462,-0.0007141952543914705,-0.011261784594408339,0.6158724174730017,67886.3046875,-191944.796875,299116.28125,1010.0563354492188,45.378387451171875
76653108,-0.28382906574428457,-0.2573485633651176,-9.818269645404209,-0.001241190827118644,-0.013115900691500967,0.8412915215722754,67886.3046875,-191944.796875,299116.28125,1010.0563354492188,45.378387451171875
76663162,-0.040873597149256646,-0.17940260081686166,-9.82219687623917,-0.002243201832885334,-0.014219375450066393,0.9612497434846594,67886.3046875,-191944.796875,299116.28125,1010.0563354492188,45.378387451171875
76672943,0.023047664429541648,-0.13864970750309613,-9.815279876422276,0.0005463369864575178,-0.014138594392589396,0.9161662802926733,67886.3046875,-191944.796875,299116.28125,1010.0563354492188,45.378387451171875
76683200,-0.04425711441457647,-0.23638186215557244,-9.814012443255772,0.005197101153766325,-0.01299519290392763,0.8791346893541052,67886.3046875,-191944.796875,299116.28125,1010.0563354492188,45.378387451171875
76692951,-0.13325739763393063,-0.372300664526076,-9.808376202380948,0.007543956740949549,-0.014312347261608186,0.933583482844821,55688.69921875,-198839.09375,299566.25,1010.0807495117188,45.37946319580078
76703103,-0.0794598247827496,-0.2935507992325732,-9.811914334094816,0.008017422045771279,-0.015242206728458944,1.0118242350649749,55688.69921875,-198839.09375,299566.25,1010.0807495117188,45.37946319580078
76713155,0.07076380383507352,-0.032999942642302216,-9.813766369617277,0.007916907194260754,-0.014435719563067499,0.9994211641383085,55688.69921875,-198839.09375,299566.25,1010.0807495117188,45.37946319580078
76722969,0.1332193415640388,0.1911370655478528,-9.817226300037198,0.005805573306236662,-0.01387098138630444,0.8714963642191801,55688.69921875,-198839.09375,299566.25,1010.0807495117188,45.37946319580078
76733613,0.04409468062506061,0.1431119045199445,-9.811121830737882,0.005270235586170353,-0.013000036454201284,0.7762781230044279,55688.69921875,-198839.09375,299566.25,1010.0807495117188,45.37946319580078
76742903,0.014659038561442905,0.07080740239038974,-9.804192433154874,0.0060671291977206845,-0.01210431927293593,0.7465928641390714,55688.69921875,-198839.09375,299566.25,1010.0807495117188,45.37946319580078
76753101,0.10602838248298507,0.17752354349508792,-9.805030712878995,0.00859898363352219,-0.009943902356923166,0.681207880122653,55688.69921875,-198839.09375,299566.25,1010.0807495117188,45.37946319580078
