Timestamp,Accelerometer_X,Accelerometer_Y,Accelerometer_Z,Gyroscope_X,Gyroscope_Y,Gyroscope_Z,Magnetometer_X,Magnetometer_Y,Magnetometer_Z,Abs_Pressure,Temperature
2058620,0.0012806403201600803,-0.004587293646823407,-9.812790255127563,0.0,1.0005002501250626e-05,-3.0015007503751875e-05,0,0,0,45.31
2058625,0.0012806403201600803,-0.004587293646823407,-9.812790255127563,0.0,1.0005002501250626e-05,-3.0015007503751875e-05,0,0,0,45.5
2058630,0.0012806403201600803,0.0054127063531765884,-9.812790255127563,0.0,1.0005002501250626e-05,-3.0015007503751875e-05,0,0,0,45.5
2058637,0.01128064032016008,0.0054127063531765884,-9.812790255127563,0.0,1.0005002501250626e-05,-3.0015007503751875e-05,0,0,0,45.62
2058640,0.01128064032016008,0.0054127063531765884,-9.812790255127563,0.0,1.0005002501250626e-05,-3.0015007503751875e-05,0,0,0,45.5
2058645,0.0012806403201600803,0.0054127063531765884,-9.802790255127563,0.0,1.0005002501250626e-05,-3.0015007503751875e-05,0,0,0,45.06
2058650,0.0012806403201600803,0.0054127063531765884,-9.802790255127563,0.0,1.0005002501250626e-05,-3.0015007503751875e-05,0,0,0,45.37
2058655,0.0012806403201600803,0.0054127063531765884,-9.802790255127563,0.0,1.0005002501250626e-05,-3.0015007503751875e-05,0,0,0,45.5
2058660,0.0012806403201600803,0.0054127063531765884,-9.802790255127563,0.0,1.0005002501250626e-05,-3.0015007503751875e-05,0,0,0,45.25
2058665,0.0012806403201600803,0.0054127063531765884,-9.802790255127563,0.0,1.0005002501250626e-05,-3.0015007503751875e-05,0,0,0,45.31
2058680,-0.00871935967983992,0.0054127063531765884,-9.812790255127563,0.0,1.0005002501250626e-05,-3.0015007503751875e-05,0,0,0,45.37
2058700,0.0012806403201600803,0.0054127063531765884,-9.812790255127563,0.0,1.0005002501250626e-05,-3.0015007503751875e-05,0,0,0,45.43
2058710,0.0012806403201600803,-0.004587293646823407,-9.802790255127563,0.0,1.0005002501250626e-05,-3.0015007503751875e-05,0,0,0,45.5
2058720,0.0012806403201600803,-0.004587293646823407,-9.812790255127563,0.0,1.0005002501250626e-05,-3.0015007503751875e-05,0,0,0,45.5
2058730,0.0012806403201600803,0.0054127063531765884,-9.812790255127563,0.0,1.0005002501250626e-05,-3.0015007503751875e-05,0,0,0,45.12
2058740,0.0012806403201600803,0.0054127063531765884,-9.812790255127563,0.0,1.0005002501250626e-05,-3.0015007503751875e-05,0,0,0,45.31
2058752,0.0012806403201600803,0.0054127063531765884,-9.802790255127563,0.0,1.0005002501250626e-05,-3.0015007503751875e-05,0,0,0,45.68
2058760,0.0012806403201600803,-0.004587293646823407,-9.802790255127563,0.0,1.0005002501250626e-05,-3.0015007503751875e-05,0,0,0,45.5
2058770,0.0012806403201600803,0.0054127063531765884,-9.802790255127563,0.0,1.0005002501250626e-05,-3.0015007503751875e-05,0,0,0,45.5
2058780,0.0012806403201600803,0.0054127063531765884,-9.802790255127563,0.0,1.0005002501250626e-05,-3.0015007503751875e-05,0,0,0,45.12
2058790,0.0012806403201600803,-0.004587293646823407,-9.812790255127563,0.0,1.0005002501250626e-05,-3.0015007503751875e-05,0,0,0,45.56
2058800,0.0012806403201600803,-0.004587293646823407,-9.812790255127563,0.0,1.0005002501250626e-05,-3.0015007503751875e-05,0,0,0,45.5
2058810,0.01128064032016008,0.0054127063531765884,-9.812790255127563,0.0,1.0005002501250626e-05,-3.0015007503751875e-05,0,0,0,45.37
2058820,0.0012806403201600803,0.0054127063531765884,-9.812790255127563,0.0,1.0005002501250626e-05,-3.0015007503751875e-05,0,0,0,45.31
2058830,0.0012806403201600803,0.0054127063531765884,-9.812790255127563,0.0,1.0005002501250626e-05,-3.0015007503751875e-05,0,0,0,45.43
2058840,-0.00871935967983992,-0.004587293646823407,-9.822790255127563,0.0,1.0005002501250626e-05,-3.0015007503751875e-05,0,0,0,45.31
2058850,0.0012806403201600803,-0.004587293646823407,-9.812790255127563,0.0,1.0005002501250626e-05,-3.0015007503751875e-05,0,0,0,45.12
2058860,0.0012806403201600803,-0.004587293646823407,-9.812790255127563,0.0,1.0005002501250626e-05,-3.0015007503751875e-05,0,0,0,45.43
2058870,0.0012806403201600803,-0.004587293646823407,-9.812790255127563,0.0,1.0005002501250626e-05,-3.0015007503751875e-05,0,0,0,45.5
2058880,0.0012806403201600803,0.0054127063531765884,-9.822790255127563,0.0,1.0005002501250626e-05,-3.0015007503751875e-05,0,0,0,45.37
2058890,0.0012806403201600803,0.0054127063531765884,-9.812790255127563,0.0,1.0005002501250626e-05,-3.0015007503751875e-05,0,0,0,45.37
2058900,-0.00871935967983992,-0.004587293646823407,-9.802790255127563,0.0,1.0005002501250626e-05,-3.0015007503751875e-05,0,0,0,45.5
2058910,-0.00871935967983992,-0.004587293646823407,-9.802790255127563,0.0,1.0005002501250626e-05,-3.0015007503751875e-05,0,0,0,45.5
2058920,0.0012806403201600803,-0.004587293646823407,-9.802790255127563,0.0,1.0005002501250626e-05,-3.0015007503751875e-05,0,0,0,45.37
2058930,0.0012806403201600803,-0.004587293646823407,-9.812790255127563,0.0,1.0005002501250626e-05,-3.0015007503751875e-05,0,0,0,45.31
2058940,0.0012806403201600803,0.015412706353176597,-9.812790255127563,0.0,1.0005002501250626e-05,-3.0015007503751875e-05,0,0,0,45.56
2058950,0.0012806403201600803,0.0054127063531765884,-9.812790255127563,0.0,1.0005002501250626e-05,-3.0015007503751875e-05,0,0,0,45.31
2058960,0.0012806403201600803,0.0054127063531765884,-9.812790255127563,0.0,1.0005002501250626e-05,-3.0015007503751875e-05,0,0,0,45.37
2058970,0.0012806403201600803,0.0054127063531765884,-9.812790255127563,0.0,1.0005002501250626e-05,-3.0015007503751875e-05,0,0,0,45.31
2058980,0.0012806403201600803,0.0054127063531765884,-9.812790255127563,0.0,1.0005002501250626e-05,-3.0015007503751875e-05,0,0,0,45.5
2058990,0.0012806403201600803,0.0054127063531765884,-9.812790255127563,0.0,1.0005002501250626e-05,-3.0015007503751875e-05,0,0,0,45.43
2059000,0.0012806403201600803,-0.004587293646823407,-9.812790255127563,0.0,1.0005002501250626e-05,-3.0015007503751875e-05,0,0,0,45.56
2059010,0.0012806403201600803,-0.004587293646823407,-9.812790255127563,0.0,1.0005002501250626e-05,-3.0015007503751875e-05,0,0,0,45.37
2059020,-0.00871935967983992,-0.004587293646823407,-9.802790255127563,0.0,1.0005002501250626e-05,-3.0015007503751875e-05,0,0,0,45.37
2059030,-0.00871935967983992,-0.004587293646823407,-9.812790255127563,0.0,1.0005002501250626e-05,-3.0015007503751875e-05,0,0,0,45.31
2059040,0.0012806403201600803,0.0054127063531765884,-9.812790255127563,0.0,1.0005002501250626e-05,-3.0015007503751875e-05,0,0,0,45.31
2059050,0.01128064032016008,-0.004587293646823407,-9.812790255127563,0.0,1.0005002501250626e-05,-3.0015007503751875e-05,0,0,0,45.25
2059060,0.01128064032016008,0.0054127063531765884,-9.822790255127563,0.0,1.0005002501250626e-05,-3.0015007503751875e-05,0,0,0,45.37
2059070,0.0012806403201600803,0.0054127063531765884,-9.812790255127563,0.0,1.0005002501250626e-05,-3.0015007503751875e-05,0,0,0,45.37
2059080,0.0012806403201600803,0.0054127063531765884,-9.812790255127563,0.0,1.0005002501250626e-05,-3.0015007503751875e-05,0,0,0,45.5
2059090,-0.00871935967983992,0.0054127063531765884,-9.812790255127563,0.0,1.0005002501250626e-05,-3.0015007503751875e-05,0,0,0,45.37
2059100,-0.00871935967983992,0.0054127063531765884,-9.812790255127563,0.0,1.0005002501250626e-05,-3.0015007503751875e-05,0,0,0,45.37
2059110,0.0012806403201600803,-0.004587293646823407,-9.822790255127563,0.0,1.0005002501250626e-05,-3.0015007503751875e-05,0,0,0,45.5
2059120,0.0012806403201600803,-0.004587293646823407,-9.822790255127563,0.0,1.0005002501250626e-05,-3.0015007503751875e-05,0,0,0,45.25
2059130,0.0012806403201600803,-0.004587293646823407,-9.812790255127563,0.0,1.0005002501250626e-05,-3.0015007503751875e-05,0,0,0,45.25
2059140,0.0012806403201600803,-0.004587293646823407,-9.812790255127563,0.0,1.0005002501250626e-05,-3.0015007503751875e-05,0,0,0,45.5
2059150,0.0012806403201600803,0.0054127063531765884,-9.812790255127563,0.0,1.0005002501250626e-05,-3.0015007503751875e-05,0,0,0,45.31
2059160,0.0012806403201600803,0.0054127063531765884,-9.822790255127563,0.0,1.0005002501250626e-05,-3.0015007503751875e-05,0,0,0,45.31
2059170,0.0012806403201600803,0.0054127063531765884,-9.812790255127563,0.0,1.0005002501250626e-05,-3.0015007503751875e-05,0,0,0,45.37
2059180,0.0012806403201600803,0.0054127063531765884,-9.802790255127563,0.0,1.0005002501250626e-05,-3.0015007503751875e-05,0,0,0,45.5
2059190,0.0012806403201600803,0.015412706353176597,-9.802790255127563,0.0,1.0005002501250626e-05,-3.0015007503751875e-05,0,0,0,45.62
2059200,0.0012806403201600803,0.015412706353176597,-9.802790255127563,0.0,1.0005002501250626e-05,-3.0015007503751875e-05,0,0,0,45.37
2059210,0.0012806403201600803,0.0054127063531765884,-9.812790255127563,0.0,1.0005002501250626e-05,-3.0015007503751875e-05,0,0,0,45.56
2059220,0.0012806403201600803,-0.004587293646823407,-9.812790255127563,0.0,1.0005002501250626e-05,-3.0015007503751875e-05,0,0,0,45.25
2059230,-0.00871935967983992,-0.004587293646823407,-9.822790255127563,0.0,1.0005002501250626e-05,-3.0015007503751875e-05,0,0,0,45.31
2059240,-0.00871935967983992,0.0054127063531765884,-9.822790255127563,0.0,1.0005002501250626e-05,-3.0015007503751875e-05,0,0,0,45.43
2059252,-0.00871935967983992,0.0054127063531765884,-9.812790255127563,0.0,1.0005002501250626e-05,-3.0015007503751875e-05,0,0,0,45.5
2059262,0.0012806403201600803,0.0054127063531765884,-9.812790255127563,0.0,1.0005002501250626e-05,-3.0015007503751875e-05,0,0,0,45.56
2059270,0.0012806403201600803,0.0054127063531765884,-9.812790255127563,0.0,1.0005002501250626e-05,-3.0015007503751875e-05,0,0,0,45.37
2059280,-0.00871935967983992,0.0054127063531765884,-9.802790255127563,0.0,1.0005002501250626e-05,-3.0015007503751875e-05,0,0,0,45.31
2059290,0.0012806403201600803,0.0054127063531765884,-9.812790255127563,0.0,1.0005002501250626e-05,-3.0015007503751875e-05,0,0,0,45.31
2059300,0.0012806403201600803,-0.004587293646823407,-9.812790255127563,0.0,1.0005002501250626e-05,-3.0015007503751875e-05,0,0,0,45.5
2059310,0.0012806403201600803,-0.004587293646823407,-9.802790255127563,0.0,1.0005002501250626e-05,-3.0015007503751875e-05,0,0,0,45.5
2059320,0.0012806403201600803,0.0054127063531765884,-9.812790255127563,0.0,1.0005002501250626e-05,-3.0015007503751875e-05,0,0,0,45.56
2059330,-0.00871935967983992,-0.004587293646823407,-9.812790255127563,0.0,1.0005002501250626e-05,-3.0015007503751875e-05,0,0,0,45.43
2059340,-0.00871935967983992,-0.004587293646823407,-9.812790255127563,0.0,1.0005002501250626e-05,-3.0015007503751875e-05,0,0,0,45.62
2059350,0.0012806403201600803,-0.004587293646823407,-9.802790255127563,0.0,1.0005002501250626e-05,-3.0015007503751875e-05,0,0,0,45.43
2059360,0.0012806403201600803,-0.004587293646823407,-9.812790255127563,0.0,1.0005002501250626e-05,-3.0015007503751875e-05,0,0,0,45.62
2059370,0.0012806403201600803,0.0054127063531765884,-9.812790255127563,0.0,1.0005002501250626e-05,-3.0015007503751875e-05,0,0,0,45.25
2059380,0.0012806403201600803,0.0054127063531765884,-9.812790255127563,0.0,1.0005002501250626e-05,-3.0015007503751875e-05,0,0,0,45.37
2059390,0.0012806403201600803,0.0054127063531765884,-9.812790255127563,0.0,1.0005002501250626e-05,-3.0015007503751875e-05,0,0,0,45.5
2059402,0.01128064032016008,-0.004587293646823407,-9.812790255127563,0.0,1.0005002501250626e-05,-3.0015007503751875e-05,0,0,0,45.31
2059410,0.01128064032016008,-0.004587293646823407,-9.812790255127563,0.0,1.0005002501250626e-05,-3.0015007503751875e-05,0,0,0,45.31
2059420,0.0012806403201600803,-0.004587293646823407,-9.802790255127563,0.0,1.0005002501250626e-05,-3.0015007503751875e-05,0,0,0,45.37
2059430,0.01128064032016008,0.0054127063531765884,-9.812790255127563,0.0,1.0005002501250626e-05,-3.0015007503751875e-05,0,0,0,45.37
2059440,0.0012806403201600803,0.0054127063531765884,-9.812790255127563,0.0,1.0005002501250626e-05,-3.0015007503751875e-05,0,0,0,45.5
2059450,0.0012806403201600803,-0.004587293646823407,-9.812790255127563,0.0,1.0005002501250626e-05,-3.0015007503751875e-05,0,0,0,45.31
2059460,0.0012806403201600803,-0.004587293646823407,-9.812790255127563,0.0,1.0005002501250626e-05,-3.0015007503751875e-05,0,0,0,45.37
2059470,0.0012806403201600803,-0.004587293646823407,-9.812790255127563,0.0,1.0005002501250626e-05,-3.0015007503751875e-05,0,0,0,45.5
2059480,0.0012806403201600803,-0.004587293646823407,-9.812790255127563,0.0,1.0005002501250626e-05,-3.0015007503751875e-05,0,0,0,45.5
2059490,0.01128064032016008,0.0054127063531765884,-9.822790255127563,0.0,1.0005002501250626e-05,-3.0015007503751875e-05,0,0,0,45.37
2059500,0.0012806403201600803,0.0054127063531765884,-9.812790255127563,0.0,1.0005002501250626e-05,-3.0015007503751875e-05,0,0,0,45.37
2059510,0.0012806403201600803,0.0054127063531765884,-9.812790255127563,0.0,1.0005002501250626e-05,-3.0015007503751875e-05,0,0,0,45.37
2059520,0.0012806403201600803,-0.004587293646823407,-9.812790255127563,0.0,1.0005002501250626e-05,-3.0015007503751875e-05,0,0,0,45.37
2059530,0.0012806403201600803,0.0054127063531765884,-9.812790255127563,0.0,1.0005002501250626e-05,-3.0015007503751875e-05,0,0,0,45.37
2059540,0.0012806403201600803,0.015412706353176597,-9.822790255127563,0.0,1.0005002501250626e-05,-3.0015007503751875e-05,0,0,0,45.31
2059550,0.0012806403201600803,0.0054127063531765884,-9.822790255127563,0.0,1.0005002501250626e-05,-3.0015007503751875e-05,0,0,0,45.31
2059560,0.0012806403201600803,-0.004587293646823407,-9.812790255127563,0.0,1.0005002501250626e-05,-3.0015007503751875e-05,0,0,0,45.31
2059570,0.0012806403201600803,-0.004587293646823407,-9.812790255127563,0.0,1.0005002501250626e-05,-3.0015007503751875e-05,0,0,0,45.5
2059580,-0.00871935967983992,0.0054127063531765884,-9.812790255127563,0.0,1.0005002501250626e-05,-3.0015007503751875e-05,0,0,0,45.5
2059590,-0.00871935967983992,0.0054127063531765884,-9.822790255127563,0.0,1.0005002501250626e-05,-3.0015007503751875e-05,0,0,0,45.5
2059600,-0.00871935967983992,0.0054127063531765884,-9.812790255127563,0.0,1.0005002501250626e-05,-3.0015007503751875e-05,0,0,0,45.56
2059610,0.0012806403201600803,-0.004587293646823407,-9.812790255127563,0.0,1.0005002501250626e-05,-3.0015007503751875e-05,0,0,0,45.31
2059620,-0.00871935967983992,0.0054127063531765884,-9.802790255127563,0.0,1.0005002501250626e-05,-3.0015007503751875e-05,0,0,0,45.25
2059630,0.0012806403201600803,0.0054127063531765884,-9.812790255127563,0.0,1.0005002501250626e-05,-3.0015007503751875e-05,0,0,0,45.37
2059640,-0.00871935967983992,0.0054127063531765884,-9.802790255127563,0.0,1.0005002501250626e-05,-3.0015007503751875e-05,0,0,0,45.31
2059650,0.0012806403201600803,0.0054127063531765884,-9.812790255127563,0.0,1.0005002501250626e-05,-3.0015007503751875e-05,0,0,0,45.43
2059660,0.0012806403201600803,-0.004587293646823407,-9.812790255127563,0.0,1.0005002501250626e-05,-3.0015007503751875e-05,0,0,0,45.37
2059670,0.0012806403201600803,0.0054127063531765884,-9.822790255127563,0.0,1.0005002501250626e-05,-3.0015007503751875e-05,0,0,0,45.31
2059680,0.0012806403201600803,0.015412706353176597,-9.812790255127563,0.0,1.0005002501250626e-05,-3.0015007503751875e-05,0,0,0,45.5
2059690,0.0012806403201600803,0.015412706353176597,-9.812790255127563,0.0,1.0005002501250626e-05,-3.0015007503751875e-05,0,0,0,45.31
2059700,0.0012806403201600803,0.0054127063531765884,-9.802790255127563,0.0,1.0005002501250626e-05,-3.0015007503751875e-05,0,0,0,45.31
2059710,0.0012806403201600803,-0.004587293646823407,-9.812790255127563,0.0,1.0005002501250626e-05,-3.0015007503751875e-05,0,0,0,45.37
2059720,0.0012806403201600803,0.0054127063531765884,-9.812790255127563,0.0,1.0005002501250626e-05,-3.0015007503751875e-05,0,0,0,45.12
2059730,0.0012806403201600803,0.0054127063531765884,-9.802790255127563,0.0,1.0005002501250626e-05,-3.0015007503751875e-05,0,0,0,45.31
2059740,0.0012806403201600803,0.0054127063531765884,-9.812790255127563,0.0,1.0005002501250626e-05,-3.0015007503751875e-05,0,0,0,45.43
2059750,0.0012806403201600803,-0.004587293646823407,-9.822790255127563,0.0,1.0005002501250626e-05,-3.0015007503751875e-05,0,0,0,45.5
2059760,0.0012806403201600803,0.0054127063531765884,-9.812790255127563,0.0,1.0005002501250626e-05,-3.0015007503751875e-05,0,0,0,45.37
2059770,0.0012806403201600803,0.0054127063531765884,-9.802790255127563,0.0,1.0005002501250626e-05,-3.0015007503751875e-05,0,0,0,45.37
2059780,0.0012806403201600803,0.0054127063531765884,-9.802790255127563,0.0,1.0005002501250626e-05,-3.0015007503751875e-05,0,0,0,45.31
2059790,-0.00871935967983992,0.0054127063531765884,-9.802790255127563,0.0,1.0005002501250626e-05,-3.0015007503751875e-05,0,0,0,45.5
2059800,-0.00871935967983992,-0.004587293646823407,-9.802790255127563,0.0,1.0005002501250626e-05,-3.0015007503751875e-05,0,0,0,45.31
2059810,-0.00871935967983992,0.0054127063531765884,-9.802790255127563,0.0,1.0005002501250626e-05,-3.0015007503751875e-05,0,0,0,45.5
2059820,-0.00871935967983992,-0.004587293646823407,-9.812790255127563,0.0,1.0005002501250626e-05,-3.0015007503751875e-05,0,0,0,45.25
2059830,-0.00871935967983992,-0.004587293646823407,-9.812790255127563,0.0,1.0005002501250626e-05,-3.0015007503751875e-05,0,0,0,45.43
2059840,0.0012806403201600803,0.0054127063531765884,-9.812790255127563,0.0,1.0005002501250626e-05,-3.0015007503751875e-05,0,0,0,45.31
2059852,0.01128064032016008,-0.004587293646823407,-9.812790255127563,0.0,1.0005002501250626e-05,-3.0015007503751875e-05,0,0,0,45.31
2059860,0.01128064032016008,-0.004587293646823407,-9.812790255127563,0.0,1.0005002501250626e-05,-3.0015007503751875e-05,0,0,0,45.5
2059870,0.01128064032016008,-0.004587293646823407,-9.812790255127563,0.0,1.0005002501250626e-05,-3.0015007503751875e-05,0,0,0,45.43
2059880,0.0012806403201600803,-0.004587293646823407,-9.812790255127563,0.0,1.0005002501250626e-05,-3.0015007503751875e-05,0,0,0,45.37
2059890,0.0012806403201600803,-0.004587293646823407,-9.812790255127563,0.0,1.0005002501250626e-05,-3.0015007503751875e-05,0,0,0,45.5
2059900,0.0012806403201600803,0.0054127063531765884,-9.812790255127563,0.0,1.0005002501250626e-05,-3.0015007503751875e-05,0,0,0,45.37
2059910,-0.00871935967983992,0.0054127063531765884,-9.802790255127563,0.0,1.0005002501250626e-05,-3.0015007503751875e-05,0,0,0,45.25
2059920,0.0012806403201600803,-0.004587293646823407,-9.812790255127563,0.0,1.0005002501250626e-05,-3.0015007503751875e-05,0,0,0,45.5
2059930,-0.00871935967983992,-0.004587293646823407,-9.812790255127563,0.0,1.0005002501250626e-05,-3.0015007503751875e-05,0,0,0,45.12
2059940,-0.00871935967983992,-0.004587293646823407,-9.802790255127563,0.0,1.0005002501250626e-05,-3.0015007503751875e-05,0,0,0,45.31
2059950,-0.00871935967983992,-0.004587293646823407,-9.802790255127563,0.0,1.0005002501250626e-05,-3.0015007503751875e-05,0,0,0,45.43
2059960,0.0012806403201600803,-0.004587293646823407,-9.812790255127563,0.0,1.0005002501250626e-05,-3.0015007503751875e-05,0,0,0,45.56
2059970,0.0012806403201600803,-0.004587293646823407,-9.812790255127563,0.0,1.0005002501250626e-05,-3.0015007503751875e-05,0,0,0,45.37
2059980,0.0012806403201600803,-0.004587293646823407,-9.822790255127563,0.0,1.0005002501250626e-05,-3.0015007503751875e-05,0,0,0,45.5
2059990,0.0012806403201600803,0.0054127063531765884,-9.812790255127563,0.0,1.0005002501250626e-05,-3.0015007503751875e-05,0,0,0,45.37
2060000,0.0012806403201600803,-0.004587293646823407,-9.812790255127563,0.0,1.0005002501250626e-05,-3.0015007503751875e-05,0,0,0,45.25
2060010,0.0012806403201600803,0.0054127063531765884,-9.802790255127563,0.0,1.0005002501250626e-05,-3.0015007503751875e-05,0,0,0,45.5
2060020,0.0012806403201600803,-0.004587293646823407,-9.802790255127563,0.0,1.0005002501250626e-05,-3.0015007503751875e-05,0,0,0,45.25
2060030,0.0012806403201600803,-0.004587293646823407,-9.812790255127563,0.0,1.0005002501250626e-05,-3.0015007503751875e-05,0,0,0,45.37
2060040,0.0012806403201600803,-0.004587293646823407,-9.812790255127563,0.0,1.0005002501250626e-05,-3.0015007503751875e-05,0,0,0,45.25
2060050,0.01128064032016008,-0.004587293646823407,-9.812790255127563,0.0,1.0005002501250626e-05,-3.0015007503751875e-05,0,0,0,45.37
2060060,0.0012806403201600803,0.0054127063531765884,-9.802790255127563,0.0,1.0005002501250626e-05,-3.0015007503751875e-05,0,0,0,45.25
2060070,0.0012806403201600803,0.0054127063531765884,-9.812790255127563,0.0,1.0005002501250626e-05,-3.0015007503751875e-05,0,0,0,45.25
2060080,0.0012806403201600803,0.0054127063531765884,-9.812790255127563,0.0,1.0005002501250626e-05,-3.0015007503751875e-05,0,0,0,45.56
2060090,0.0012806403201600803,0.0054127063531765884,-9.812790255127563,0.0,1.0005002501250626e-05,-3.0015007503751875e-05,0,0,0,45.5
2060100,0.0012806403201600803,-0.004587293646823407,-9.822790255127563,0.0,1.0005002501250626e-05,-3.0015007503751875e-05,0,0,0,45.5
2060110,0.0012806403201600803,-0.004587293646823407,-9.822790255127563,0.0,1.0005002501250626e-05,-3.0015007503751875e-05,0,0,0,45.5
2060120,0.0012806403201600803,-0.004587293646823407,-9.812790255127563,0.0,1.0005002501250626e-05,-3.0015007503751875e-05,0,0,0,45.31
2060130,-0.00871935967983992,-0.004587293646823407,-9.812790255127563,0.0,1.0005002501250626e-05,-3.0015007503751875e-05,0,0,0,45.5
2060140,-0.00871935967983992,0.0054127063531765884,-9.822790255127563,0.0,1.0005002501250626e-05,-3.0015007503751875e-05,0,0,0,45.31
2060150,0.0012806403201600803,-0.004587293646823407,-9.812790255127563,0.0,1.0005002501250626e-05,-3.0015007503751875e-05,0,0,0,45.31
2060160,0.0012806403201600803,-0.004587293646823407,-9.802790255127563,0.0,1.0005002501250626e-05,-3.0015007503751875e-05,0,0,0,45.12
2060170,0.0012806403201600803,-0.004587293646823407,-9.802790255127563,0.0,1.0005002501250626e-05,-3.0015007503751875e-05,0,0,0,45.25
2060180,0.0012806403201600803,-0.004587293646823407,-9.812790255127563,0.0,1.0005002501250626e-05,-3.0015007503751875e-05,0,0,0,45.43
2060190,0.0012806403201600803,-0.004587293646823407,-9.812790255127563,0.0,1.0005002501250626e-05,-3.0015007503751875e-05,0,0,0,45.37
2060200,0.0012806403201600803,-0.004587293646823407,-9.812790255127563,0.0,1.0005002501250626e-05,-3.0015007503751875e-05,0,0,0,45.5
2060210,0.0012806403201600803,-0.004587293646823407,-9.822790255127563,0.0,1.0005002501250626e-05,-3.0015007503751875e-05,0,0,0,45.31
2060220,-0.00871935967983992,-0.004587293646823407,-9.812790255127563,0.0,1.0005002501250626e-05,-3.0015007503751875e-05,0,0,0,45.37
2060230,0.0012806403201600803,0.0054127063531765884,-9.812790255127563,0.0,1.0005002501250626e-05,-3.0015007503751875e-05,0,0,0,45.5
2060240,-0.00871935967983992,0.0054127063531765884,-9.812790255127563,0.0,1.0005002501250626e-05,-3.0015007503751875e-05,0,0,0,45.43
2060250,-0.00871935967983992,-0.004587293646823407,-9.822790255127563,0.0,1.0005002501250626e-05,-3.0015007503751875e-05,0,0,0,45.25
2060260,-0.00871935967983992,-0.004587293646823407,-9.822790255127563,0.0,1.0005002501250626e-05,-3.0015007503751875e-05,0,0,0,45.43
2060270,-0.00871935967983992,-0.004587293646823407,-9.812790255127563,0.0,1.0005002501250626e-05,-3.0015007503751875e-05,0,0,0,45.31
2060280,0.0012806403201600803,0.0054127063531765884,-9.812790255127563,0.0,1.0005002501250626e-05,-3.0015007503751875e-05,0,0,0,45.25
2060290,0.0012806403201600803,0.0054127063531765884,-9.812790255127563,0.0,1.0005002501250626e-05,-3.0015007503751875e-05,0,0,0,45.68
2060300,0.0012806403201600803,0.015412706353176597,-9.812790255127563,0.0,1.0005002501250626e-05,-3.0015007503751875e-05,0,0,0,45.5
2060312,0.0012806403201600803,0.015412706353176597,-9.812790255127563,0.0,1.0005002501250626e-05,-3.0015007503751875e-05,0,0,0,45.5
2060320,0.01128064032016008,0.0054127063531765884,-9.812790255127563,0.0,1.0005002501250626e-05,-3.0015007503751875e-05,0,0,0,45.5
2060330,0.0012806403201600803,-0.004587293646823407,-9.812790255127563,0.0,1.0005002501250626e-05,-3.0015007503751875e-05,0,0,0,45.37
2060340,0.0012806403201600803,-0.004587293646823407,-9.812790255127563,0.0,1.0005002501250626e-05,-3.0015007503751875e-05,0,0,0,45.31
2060350,0.0012806403201600803,-0.004587293646823407,-9.812790255127563,0.0,1.0005002501250626e-05,-3.0015007503751875e-05,0,0,0,45.31
2060360,0.0012806403201600803,-0.004587293646823407,-9.812790255127563,0.0,1.0005002501250626e-05,-3.0015007503751875e-05,0,0,0,45.31
2060370,0.0012806403201600803,-0.004587293646823407,-9.802790255127563,0.0,1.0005002501250626e-05,-3.0015007503751875e-05,0,0,0,45.37
2060380,-0.058719359679839926,-0.034587293646823405,-9.782790255127564,-0.07,0.07001000500250126,-3.0015007503751875e-05,0,0,0,45.56
2060390,0.09128064032016009,0.0754127063531766,-9.802790255127563,0.0,0.06001000500250125,-3.0015007503751875e-05,0,0,0,45.37
2060402,0.0012806403201600803,-0.004587293646823407,-9.812790255127563,0.15,-0.08998999499749874,-3.0015007503751875e-05,0,0,0,45.31
2060410,-0.00871935967983992,-0.014587293646823402,-9.822790255127563,0.14,-0.06998999499749875,-0.010030015007503753,0,0,0,45.5
2060420,-0.01871935967983992,-0.02458729364682341,-9.812790255127563,0.06,-0.009989994997498749,-3.0015007503751875e-05,0,0,0,45.43
2060430,-0.01871935967983992,-0.02458729364682341,-9.812790255127563,0.0,0.02001000500250125,-3.0015007503751875e-05,0,0,0,45.25
2060440,-0.00871935967983992,-0.004587293646823407,-9.812790255127563,-0.03,0.04001000500250125,-3.0015007503751875e-05,0,0,0,45.25
2060450,-0.00871935967983992,-0.004587293646823407,-9.812790255127563,-0.05,0.06001000500250125,-3.0015007503751875e-05,0,0,0,45.5
2060462,0.0012806403201600803,0.0054127063531765884,-9.802790255127563,-0.08,0.10001000500250126,-3.0015007503751875e-05,0,0,0,45.43
2060470,-0.00871935967983992,-0.004587293646823407,-9.802790255127563,-0.1,0.12001000500250125,-3.0015007503751875e-05,0,0,0,45.62
2060480,-0.00871935967983992,0.0054127063531765884,-9.802790255127563,-0.13,0.19001000500250126,-3.0015007503751875e-05,0,0,0,45.12
2060490,0.01128064032016008,0.0054127063531765884,-9.812790255127563,-0.11,0.18001000500250125,-3.0015007503751875e-05,0,0,0,45.37
2060500,0.01128064032016008,0.0054127063531765884,-9.812790255127563,-0.07,0.12001000500250125,-3.0015007503751875e-05,0,0,0,45.5
2060510,0.021280640320160082,0.015412706353176597,-9.802790255127563,-0.04,0.08001000500250126,-3.0015007503751875e-05,0,0,0,45.25
2060520,0.03128064032016008,0.025412706353176592,-9.812790255127563,0.01,1.0005002501250626e-05,-3.0015007503751875e-05,0,0,0,45.43
2060530,0.021280640320160082,0.025412706353176592,-9.812790255127563,0.06,-0.07998999499749875,-3.0015007503751875e-05,0,0,0,45.43
2060540,-0.00871935967983992,0.0054127063531765884,-9.822790255127563,0.09,-0.09998999499749875,-3.0015007503751875e-05,0,0,0,45.43
2060550,-0.02871935967983992,-0.02458729364682341,-9.822790255127563,0.01,-0.01998999499749875,-3.0015007503751875e-05,0,0,0,45.31
2060560,-0.00871935967983992,-0.014587293646823402,-9.822790255127563,-0.05,0.05001000500250125,-3.0015007503751875e-05,0,0,0,45.31
2060570,0.0012806403201600803,0.0054127063531765884,-9.822790255127563,-0.09,0.10001000500250126,-3.0015007503751875e-05,0,0,0,45.37
2060580,0.01128064032016008,0.015412706353176597,-9.812790255127563,-0.07,0.10001000500250126,-3.0015007503751875e-05,0,0,0,45.37
2060590,0.021280640320160082,0.025412706353176592,-9.812790255127563,-0.05,0.05001000500250125,-3.0015007503751875e-05,0,0,0,45.31
2060600,0.01128064032016008,0.045412706353176596,-9.802790255127563,0.01,1.0005002501250626e-05,-3.0015007503751875e-05,0,0,0,45.43
2060610,0.021280640320160082,0.025412706353176592,-9.802790255127563,0.1,-0.05998999499749875,0.009969984992496248,0,0,0,45.5
2060620,0.021280640320160082,0.0054127063531765884,-9.802790255127563,0.14,-0.13998999499749876,-3.0015007503751875e-05,0,0,0,45.75
2060630,0.021280640320160082,0.0054127063531765884,-9.812790255127563,0.15,-0.18998999499749875,-3.0015007503751875e-05,0,0,0,45.37
2060640,0.01128064032016008,0.0054127063531765884,-9.812790255127563,0.16,-0.18998999499749875,-3.0015007503751875e-05,0,0,0,45.5
2060650,0.0012806403201600803,-0.02458729364682341,-9.812790255127563,0.15,-0.15998999499749875,-0.010030015007503753,0,0,0,45.31
2060660,0.0012806403201600803,-0.014587293646823402,-9.812790255127563,0.11,-0.13998999499749876,-0.010030015007503753,0,0,0,45.31
2060670,0.5412806403201601,0.1154127063531766,-9.822790255127563,0.03,1.0005002501250626e-05,-0.14003001500750376,0,0,0,45.31
2060680,0.5312806403201601,0.06541270635317659,-9.812790255127563,-0.07,0.05001000500250125,-0.3900300150075038,0,0,0,45.5
2060690,0.48128064032016005,0.055412706353176605,-9.802790255127563,-0.04,0.06001000500250125,-0.09003001500750375,0,0,0,45.37
2060700,1.0912806403201603,0.2254127063531766,-9.812790255127563,0.02,0.06001000500250125,0.6499699849924963,0,0,0,45.31
2060712,1.3512806403201603,0.2654127063531766,-9.822790255127563,0.03,0.04001000500250125,2.259969984992496,0,0,0,45.56
2060720,1.2612806403201602,0.1854127063531766,-9.822790255127563,0.02,0.02001000500250125,3.339969984992496,0,0,0,45.31
2060730,1.15128064032016,0.0854127063531766,-9.812790255127563,0.0,0.010010005002501252,4.179969984992496,0,0,0,45.12
2060740,1.1012806403201603,-0.08458729364682341,-9.812790255127563,-0.06,0.02001000500250125,3.499969984992496,0,0,0,45.31
2060750,1.0712806403201602,-0.28458729364682345,-9.812790255127563,-0.1,0.04001000500250125,1.5199699849924964,0,0,0,45.31
2060760,1.17128064032016,-0.5045872936468234,-9.812790255127563,-0.13,0.05001000500250125,-0.6900300150075037,0,0,0,45.25
2060770,1.2112806403201601,-0.9445872936468234,-9.812790255127563,-0.2,0.06001000500250125,-2.740030015007504,0,0,0,45.31
2060780,1.0712806403201602,-1.2245872936468234,-9.822790255127563,-0.22,0.07001000500250126,-4.990030015007504,0,0,0,45.5
2060790,1.0012806403201602,-1.1145872936468235,-9.832790255127563,-0.17,0.05001000500250125,-6.990030015007504,0,0,0,45.31
2060800,0.8712806403201601,-0.6945872936468234,-9.822790255127563,-0.09,0.05001000500250125,-8.040030015007503,0,0,0,45.5
2060810,0.7412806403201601,-0.07458729364682341,-9.812790255127563,0.0,0.06001000500250125,-8.480030015007504,0,0,0,45.5
2060820,0.6312806403201601,0.6154127063531766,-9.802790255127563,0.05,0.07001000500250126,-8.580030015007504,0,0,0,45.37
2060830,0.59128064032016,1.0254127063531766,-9.812790255127563,0.07,0.06001000500250125,-8.370030015007503,0,0,0,45.31
2060840,0.7412806403201601,1.1354127063531765,-9.802790255127563,0.06,0.04001000500250125,-7.850030015007503,0,0,0,45.43
2060850,0.97128064032016,1.0854127063531764,-9.802790255127563,0.06,0.02001000500250125,-6.640030015007503,0,0,0,45.5
2060860,1.1812806403201601,0.9854127063531767,-9.812790255127563,0.07,1.0005002501250626e-05,-4.300030015007503,0,0,0,45.5
2060870,1.2612806403201602,0.7754127063531766,-9.802790255127563,0.07,-0.02998999499749875,-0.9200300150075038,0,0,0,45.5
2060880,1.0912806403201603,0.34541270635317656,-9.802790255127563,0.08,-0.05998999499749875,2.029969984992496,0,0,0,45.37
2060890,0.7612806403201601,-0.05458729364682341,-9.822790255127563,0.09,-0.06998999499749875,4.089969984992496,0,0,0,45.5
2060900,0.18128064032016009,-0.3645872936468234,-9.822790255127563,0.07,-0.05998999499749875,5.199969984992497,0,0,0,45.62
2060910,-0.31871935967983994,-0.5045872936468234,-9.812790255127563,0.03,-0.05998999499749875,5.099969984992496,0,0,0,45.43
2060920,-0.6787193596798399,-0.4645872936468234,-9.812790255127563,-0.03,-0.04998999499749875,3.789969984992496,0,0,0,45.43
2060930,-0.7587193596798399,-0.28458729364682345,-9.822790255127563,-0.08,-0.03998999499749875,2.009969984992496,0,0,0,45.25
2060940,-0.64871935967984,-0.05458729364682341,-9.822790255127563,-0.1,-0.03998999499749875,0.5199699849924962,0,0,0,45.37
2060950,-0.4087193596798399,0.1154127063531766,-9.812790255127563,-0.12,-0.02998999499749875,-0.25003001500750377,0,0,0,45.5
2060960,-0.18871935967983994,0.1054127063531766,-9.792790255127564,-0.11,1.0005002501250626e-05,-0.8400300150075037,0,0,0,45.5
2060970,0.06128064032016008,0.015412706353176597,-9.792790255127564,-0.06,1.0005002501250626e-05,-1.2700300150075037,0,0,0,45.31
2060980,0.25128064032016006,-0.08458729364682341,-9.802790255127563,0.0,-0.02998999499749875,-0.8400300150075037,0,0,0,45.25
2060990,0.21128064032016008,-0.04458729364682341,-9.812790255127563,0.06,-0.02998999499749875,0.27996998499249626,0,0,0,45.5
2061002,-0.09871935967983991,-0.08458729364682341,-9.822790255127563,0.04,-0.009989994997498749,1.1799699849924963,0,0,0,45.37
2061012,-0.3387193596798399,-0.2045872936468234,-9.812790255127563,0.02,0.010010005002501252,0.5899699849924962,0,0,0,45.31
2061020,-0.3587193596798399,-0.27458729364682344,-9.812790255127563,0.05,0.02001000500250125,-0.16003001500750375,0,0,0,45.31
2061030,-0.37871935967983994,-0.3645872936468234,-9.822790255127563,0.07,0.02001000500250125,-0.7800300150075038,0,0,0,45.37
2061040,-0.3987193596798399,-0.28458729364682345,-9.822790255127563,0.11,0.03001000500250125,-1.0400300150075037,0,0,0,45.5
2061050,-0.43871935967983994,-0.12458729364682342,-9.822790255127563,0.15,0.02001000500250125,-1.1600300150075036,0,0,0,45.43
2061060,-0.4887193596798399,0.0754127063531766,-9.802790255127563,0.2,1.0005002501250626e-05,-1.2300300150075036,0,0,0,45.5
2061070,-0.44871935967983995,0.2654127063531766,-9.802790255127563,0.22,-0.009989994997498749,-1.2700300150075037,0,0,0,45.5
2061080,-0.37871935967983994,0.3654127063531766,-9.812790255127563,0.21,-0.03998999499749875,-1.1100300150075038,0,0,0,45.68
2061090,-0.26871935967983995,0.35541270635317657,-9.822790255127563,0.16,-0.06998999499749875,-0.5300300150075038,0,0,0,45.37
2061100,-0.00871935967983992,0.19541270635317662,-9.822790255127563,0.09,-0.11998999499749874,0.22996998499249627,0,0,0,45.25
2061110,0.18128064032016009,0.045412706353176596,-9.812790255127563,0.05,-0.12998999499749875,0.7899699849924963,0,0,0,45.5
2061120,0.2712806403201601,0.03541270635317659,-9.802790255127563,0.02,-0.07998999499749875,1.0899699849924964,0,0,0,45.43
2061130,0.17128064032016008,0.12541270635317658,-9.802790255127563,0.0,0.010010005002501252,1.2599699849924964,0,0,0,45.37
2061140,0.03128064032016008,0.32541270635317654,-9.802790255127563,0.0,0.04001000500250125,1.7099699849924963,0,0,0,45.43
2061150,-0.03871935967983992,0.3754127063531766,-9.792790255127564,0.03,1.0005002501250626e-05,2.549969984992496,0,0,0,45.56
2061160,-0.13871935967983992,0.1854127063531766,-9.792790255127564,0.02,-0.03998999499749875,3.1599699849924963,0,0,0,45.31
2061170,-0.2887193596798399,-0.02458729364682341,-9.802790255127563,0.01,-0.04998999499749875,2.939969984992496,0,0,0,45.31
2061180,-0.3387193596798399,-0.08458729364682341,-9.812790255127563,-0.01,-0.06998999499749875,2.109969984992496,0,0,0,45.31
2061190,-0.30871935967983993,-0.0945872936468234,-9.822790255127563,-0.02,-0.05998999499749875,1.3899699849924962,0,0,0,45.43
2061200,-0.17871935967983993,-0.08458729364682341,-9.812790255127563,-0.03,-0.03998999499749875,1.1299699849924962,0,0,0,45.43
2061210,-0.00871935967983992,-0.0645872936468234,-9.812790255127563,0.0,-0.01998999499749875,1.3299699849924964,0,0,0,45.43
2061220,0.14128064032016008,-0.08458729364682341,-9.812790255127563,0.02,-0.02998999499749875,1.8199699849924964,0,0,0,45.37
2061230,0.18128064032016009,-0.07458729364682341,-9.802790255127563,0.03,-0.03998999499749875,1.8999699849924963,0,0,0,45.37
2061240,0.17128064032016008,0.0054127063531765884,-9.802790255127563,0.04,-0.02998999499749875,1.4099699849924963,0,0,0,45.31
2061250,0.18128064032016009,0.025412706353176592,-9.812790255127563,0.01,1.0005002501250626e-05,0.6799699849924963,0,0,0,45.06
2061262,0.24128064032016008,0.0754127063531766,-9.812790255127563,-0.02,1.0005002501250626e-05,-0.09003001500750375,0,0,0,45.5
2061270,0.30128064032016005,0.1354127063531766,-9.812790255127563,-0.04,1.0005002501250626e-05,-0.35003001500750375,0,0,0,45.25
2061280,0.3512806403201601,0.0854127063531766,-9.812790255127563,-0.07,0.03001000500250125,-0.2800300150075038,0,0,0,45.5
2061290,0.31128064032016006,-0.07458729364682341,-9.812790255127563,-0.11,0.11001000500250126,0.019969984992496248,0,0,0,45.5
2061302,0.13128064032016007,-0.1645872936468234,-9.802790255127563,-0.13,0.14001000500250127,0.5799699849924962,0,0,0,45.43
2061310,-0.03871935967983992,-0.2345872936468234,-9.812790255127563,-0.11,0.10001000500250126,0.9099699849924963,0,0,0,45.31
2061320,-0.15871935967983994,-0.22458729364682342,-9.812790255127563,-0.09,0.05001000500250125,0.9599699849924962,0,0,0,45.5
2061330,-0.03871935967983992,-0.2145872936468234,-9.822790255127563,-0.07,0.03001000500250125,0.5199699849924962,0,0,0,45.43
2061340,0.18128064032016009,-0.2345872936468234,-9.822790255127563,-0.04,0.04001000500250125,-0.020030015007503753,0,0,0,45.5
2061350,0.2912806403201601,-0.04458729364682341,-9.822790255127563,0.0,0.05001000500250125,-0.47003001500750374,0,0,0,45.31
2061362,0.2612806403201601,0.43541270635317664,-9.802790255127563,0.13,0.03001000500250125,-0.5600300150075038,0,0,0,45.5
2061370,0.30128064032016005,0.6154127063531766,-9.802790255127563,0.21,0.010010005002501252,-0.18003001500750374,0,0,0,45.43
2061380,0.36128064032016005,0.5554127063531766,-9.802790255127563,0.29,-0.02998999499749875,1.0099699849924964,0,0,0,45.56
2061390,0.38128064032016007,0.2654127063531766,-9.822790255127563,0.31,-0.03998999499749875,2.339969984992496,0,0,0,45.37
2061400,0.37128064032016006,-0.0945872936468234,-9.832790255127563,0.28,-0.009989994997498749,3.169969984992496,0,0,0,45.56
2061410,0.31128064032016006,-0.3445872936468234,-9.822790255127563,0.21,0.03001000500250125,3.1999699849924963,0,0,0,45.5
2061420,0.10128064032016007,-0.3845872936468234,-9.812790255127563,0.17,0.05001000500250125,2.629969984992496,0,0,0,45.56
2061430,-0.19871935967983992,-0.2945872936468234,-9.812790255127563,0.14,0.05001000500250125,1.8799699849924962,0,0,0,45.37
2061440,-0.51871935967984,-0.1745872936468234,-9.812790255127563,0.1,0.07001000500250126,1.2999699849924964,0,0,0,45.31
2061450,-0.7587193596798399,0.09541270635317659,-9.832790255127563,0.05,0.09001000500250125,0.7499699849924962,0,0,0,45.37
2061460,-0.8087193596798399,0.3754127063531766,-9.812790255127563,0.04,0.07001000500250126,0.15996998499249626,0,0,0,45.12
2061470,-0.7187193596798399,0.5354127063531766,-9.802790255127563,0.04,0.05001000500250125,-0.2800300150075038,0,0,0,45.43
2061480,-0.4687193596798399,0.5754127063531767,-9.792790255127564,0.03,0.04001000500250125,-0.43003001500750376,0,0,0,45.06
2061490,-0.10871935967983992,0.4054127063531766,-9.802790255127563,0.01,0.03001000500250125,-0.5100300150075038,0,0,0,45.12
2061500,0.17128064032016008,0.21541270635317658,-9.812790255127563,-0.01,1.0005002501250626e-05,-0.8600300150075038,0,0,0,45.31
2061510,0.3912806403201601,0.09541270635317659,-9.822790255127563,-0.02,-0.009989994997498749,-1.2900300150075037,0,0,0,45.37
2061520,0.4712806403201601,-0.004587293646823407,-9.822790255127563,-0.05,0.010010005002501252,-1.3500300150075037,0,0,0,45.43
2061530,0.38128064032016007,-0.02458729364682341,-9.812790255127563,-0.06,0.05001000500250125,-1.2100300150075036,0,0,0,45.31
2061540,0.21128064032016008,-0.02458729364682341,-9.792790255127564,0.0,0.010010005002501252,-0.9000300150075038,0,0,0,45.43
2061550,0.09128064032016009,-0.08458729364682341,-9.802790255127563,0.09,-0.05998999499749875,-0.3300300150075038,0,0,0,45.31
2061560,-0.03871935967983992,-0.15458729364682341,-9.802790255127563,0.13,-0.06998999499749875,0.6099699849924962,0,0,0,45.62
2061570,-0.21871935967983994,-0.28458729364682345,-9.812790255127563,0.08,-0.03998999499749875,1.4199699849924963,0,0,0,45.5
2061580,-0.3387193596798399,-0.3145872936468234,-9.832790255127563,0.0,0.02001000500250125,1.6199699849924964,0,0,0,45.5
2061590,-0.31871935967983994,-0.3645872936468234,-9.832790255127563,-0.08,0.11001000500250126,0.9499699849924962,0,0,0,45.37
2061600,-0.19871935967983992,-0.3745872936468234,-9.822790255127563,-0.1,0.13001000500250126,-0.17003001500750375,0,0,0,45.31
2061610,0.01128064032016008,-0.2345872936468234,-9.812790255127563,-0.06,0.12001000500250125,-1.2500300150075037,0,0,0,45.5
2061620,0.19128064032016007,0.015412706353176597,-9.822790255127563,-0.01,0.09001000500250125,-1.9500300150075036,0,0,0,45.43
2061630,0.30128064032016005,0.15541270635317658,-9.822790255127563,0.01,0.06001000500250125,-1.9400300150075036,0,0,0,45.31
2061640,0.4112806403201601,0.1454127063531766,-9.812790255127563,0.0,0.06001000500250125,-1.3400300150075037,0,0,0,45.43
2061650,0.43128064032016006,0.0054127063531765884,-9.822790255127563,-0.01,0.05001000500250125,-0.36003001500750376,0,0,0,45.56
2061660,0.31128064032016006,-0.08458729364682341,-9.812790255127563,-0.04,0.03001000500250125,0.30996998499249623,0,0,0,45.5
2061670,0.14128064032016008,-0.1445872936468234,-9.802790255127563,-0.03,-0.01998999499749875,0.38996998499249624,0,0,0,45.5
2061680,0.03128064032016008,-0.3845872936468234,-9.812790255127563,-0.06,-0.02998999499749875,-0.31003001500750377,0,0,0,45.5
2061690,-0.02871935967983992,-0.5345872936468234,-9.812790255127563,-0.09,-0.03998999499749875,-1.5600300150075037,0,0,0,45.31
2061700,-0.03871935967983992,-0.4545872936468234,-9.812790255127563,-0.04,-0.05998999499749875,-2.870030015007504,0,0,0,45.37
2061710,0.0012806403201600803,-0.15458729364682341,-9.812790255127563,0.02,-0.05998999499749875,-3.640030015007504,0,0,0,45.5
2061720,0.11128064032016008,0.1354127063531766,-9.802790255127563,0.07,-0.03998999499749875,-3.830030015007504,0,0,0,45.37
2061730,0.36128064032016005,0.2654127063531766,-9.802790255127563,0.08,1.0005002501250626e-05,-3.690030015007504,0,0,0,45.31
2061740,0.71128064032016,0.2354127063531766,-9.812790255127563,0.06,0.03001000500250125,-3.150030015007504,0,0,0,45.37
2061750,0.8912806403201601,0.1854127063531766,-9.812790255127563,0.02,0.04001000500250125,-2.440030015007504,0,0,0,45.31
2061760,0.9112806403201601,0.21541270635317658,-9.812790255127563,0.0,0.02001000500250125,-2.160030015007504,0,0,0,45.5
2061770,0.95128064032016,0.1754127063531766,-9.812790255127563,-0.01,0.02001000500250125,-2.150030015007504,0,0,0,45.31
2061780,0.85128064032016,-0.08458729364682341,-9.802790255127563,-0.06,0.05001000500250125,-1.7800300150075037,0,0,0,45.5
2061790,0.5412806403201601,-0.3745872936468234,-9.802790255127563,-0.07,-0.01998999499749875,-1.4700300150075036,0,0,0,45.5
2061802,0.10128064032016007,-0.5845872936468234,-9.842790255127563,-0.11,0.02001000500250125,-1.3900300150075036,0,0,0,45.5
2061812,-0.31871935967983994,-0.4745872936468234,-9.832790255127563,-0.17,0.11001000500250126,-0.9400300150075037,0,0,0,45.56
2061820,-0.66871935967984,-0.2345872936468234,-9.812790255127563,-0.13,0.07001000500250126,-0.7000300150075037,0,0,0,45.43
2061830,-0.9587193596798399,0.1654127063531766,-9.812790255127563,-0.05,1.0005002501250626e-05,-0.8700300150075038,0,0,0,45.31
2061840,-0.9287193596798399,0.3854127063531766,-9.802790255127563,0.06,-0.05998999499749875,-1.3300300150075037,0,0,0,45.56
2061852,-0.66871935967984,0.2554127063531766,-9.802790255127563,0.18,-0.10998999499749874,-1.8700300150075038,0,0,0,45.37
2061862,-0.4887193596798399,0.03541270635317659,-9.802790255127563,0.19,-0.10998999499749874,-2.400030015007504,0,0,0,45.31
2061870,-0.3387193596798399,-0.08458729364682341,-9.802790255127563,0.17,-0.08998999499749874,-2.810030015007504,0,0,0,45.37
2061880,-0.12871935967983994,-0.08458729364682341,-9.812790255127563,0.15,-0.07998999499749875,-2.950030015007504,0,0,0,45.5
2061890,0.01128064032016008,-0.0945872936468234,-9.812790255127563,0.13,-0.02998999499749875,-2.620030015007504,0,0,0,45.12
2061900,0.08128064032016008,-0.10458729364682341,-9.812790255127563,0.09,0.03001000500250125,-2.440030015007504,0,0,0,45.5
2061912,0.18128064032016009,-0.0945872936468234,-9.812790255127563,0.06,0.08001000500250126,-2.3200300150075037,0,0,0,45.12
2061920,0.17128064032016008,-0.2145872936468234,-9.812790255127563,0.05,0.11001000500250126,-2.3000300150075037,0,0,0,45.37
2061930,0.1512806403201601,-0.42458729364682346,-9.812790255127563,0.04,0.13001000500250126,-2.460030015007504,0,0,0,45.37
2061940,0.04128064032016008,-0.5745872936468234,-9.822790255127563,0.04,0.11001000500250126,-2.620030015007504,0,0,0,45.5
2061950,-0.08871935967983993,-0.5345872936468234,-9.822790255127563,0.09,0.06001000500250125,-2.650030015007504,0,0,0,45.37
2061960,-0.17871935967983993,-0.3045872936468234,-9.812790255127563,0.14,0.04001000500250125,-2.680030015007504,0,0,0,45.31
2061970,-0.20871935967983993,-0.05458729364682341,-9.812790255127563,0.15,0.09001000500250125,-2.5300300150075037,0,0,0,45.5
2061980,-0.24871935967983994,0.1454127063531766,-9.802790255127563,0.15,0.08001000500250126,-2.3000300150075037,0,0,0,45.31
2061990,-0.17871935967983993,0.1654127063531766,-9.802790255127563,0.12,0.04001000500250125,-2.210030015007504,0,0,0,45.43
2062002,-0.09871935967983991,0.025412706353176592,-9.802790255127563,0.05,-0.06998999499749875,-2.0500300150075037,0,0,0,45.31
2062010,-0.10871935967983992,-0.02458729364682341,-9.812790255127563,-0.01,-0.12998999499749875,-1.9400300150075036,0,0,0,45.62
2062020,-0.19871935967983992,0.015412706353176597,-9.802790255127563,-0.07,-0.14998999499749874,-1.6600300150075036,0,0,0,45.5
2062030,-0.18871935967983994,0.0054127063531765884,-9.812790255127563,-0.11,-0.16998999499749876,-1.3400300150075037,0,0,0,45.37
2062040,-0.10871935967983992,-0.0945872936468234,-9.832790255127563,-0.18,-0.07998999499749875,-0.7000300150075037,0,0,0,45.5
2062052,-0.10871935967983992,-0.1845872936468234,-9.822790255127563,-0.23,0.07001000500250126,0.05996998499249625,0,0,0,45.5
2062060,-0.22871935967983992,-0.1745872936468234,-9.812790255127563,-0.25,0.14001000500250127,0.07996998499249625,0,0,0,45.31
2062070,-0.38871935967983995,-0.07458729364682341,-9.792790255127564,-0.2,0.11001000500250126,-0.2600300150075038,0,0,0,45.5
2062080,-0.4787193596798399,-0.034587293646823405,-9.792790255127564,-0.1,0.010010005002501252,-0.6400300150075038,0,0,0,45.37
2062090,-0.4787193596798399,0.015412706353176597,-9.812790255127563,-0.03,-0.05998999499749875,-0.7200300150075037,0,0,0,45.31
2062100,-0.36871935967983993,0.0054127063531765884,-9.822790255127563,0.0,-0.04998999499749875,-0.7400300150075038,0,0,0,45.31
2062112,-0.12871935967983994,-0.08458729364682341,-9.812790255127563,0.0,1.0005002501250626e-05,-0.9300300150075038,0,0,0,45.5
2062120,-0.00871935967983992,-0.05458729364682341,-9.812790255127563,0.0,1.0005002501250626e-05,-1.0200300150075037,0,0,0,45.37
2062130,0.11128064032016008,0.0754127063531766,-9.802790255127563,0.04,-0.009989994997498749,-0.7600300150075038,0,0,0,45.56
2062140,0.06128064032016008,0.1054127063531766,-9.812790255127563,0.05,-0.02998999499749875,-0.14003001500750376,0,0,0,45.31
2062150,-0.09871935967983991,0.1454127063531766,-9.802790255127563,0.06,-0.04998999499749875,0.5099699849924962,0,0,0,45.31
2062160,-0.31871935967983994,0.12541270635317658,-9.792790255127564,0.06,-0.05998999499749875,1.0299699849924964,0,0,0,45.5
2062170,-0.5687193596798399,0.03541270635317659,-9.802790255127563,0.06,-0.05998999499749875,1.1399699849924962,0,0,0,45.31
2062180,-0.7387193596798399,-0.04458729364682341,-9.822790255127563,0.05,-0.04998999499749875,0.9699699849924962,0,0,0,45.62
2062190,-0.8087193596798399,-0.0645872936468234,-9.822790255127563,0.03,1.0005002501250626e-05,0.5799699849924962,0,0,0,45.31
2062200,-0.7487193596798399,-0.014587293646823402,-9.822790255127563,0.02,0.05001000500250125,0.17996998499249625,0,0,0,45.31
2062212,-0.5587193596798399,0.06541270635317659,-9.802790255127563,0.03,0.09001000500250125,0.009969984992496248,0,0,0,45.5
2062220,-0.3987193596798399,0.09541270635317659,-9.802790255127563,0.04,0.09001000500250125,0.049969984992496254,0,0,0,45.5
2062230,-0.2787193596798399,0.09541270635317659,-9.792790255127564,0.06,0.07001000500250126,0.08996998499249624,0,0,0,45.31
2062240,-0.21871935967983994,0.0854127063531766,-9.802790255127563,0.1,0.010010005002501252,0.03996998499249625,0,0,0,45.43
2062250,-0.17871935967983993,0.06541270635317659,-9.802790255127563,0.11,-0.009989994997498749,0.03996998499249625,0,0,0,45.37
2062260,-0.14871935967983993,-0.05458729364682341,-9.812790255127563,0.09,-0.01998999499749875,-0.12003001500750375,0,0,0,45.31
2062270,-0.04871935967983992,-0.11458729364682341,-9.812790255127563,0.07,-0.03998999499749875,-0.16003001500750375,0,0,0,45.62
2062280,0.0012806403201600803,-0.2045872936468234,-9.812790255127563,0.04,-0.01998999499749875,-3.0015007503751875e-05,0,0,0,45.31
2062290,0.01128064032016008,-0.2445872936468234,-9.812790255127563,0.03,1.0005002501250626e-05,0.30996998499249623,0,0,0,45.31
2062300,-0.058719359679839926,-0.32458729364682337,-9.812790255127563,0.0,1.0005002501250626e-05,0.4899699849924962,0,0,0,45.31
2062310,-0.22871935967983992,-0.3745872936468234,-9.802790255127563,-0.04,0.02001000500250125,0.26996998499249625,0,0,0,45.25
2062320,-0.43871935967983994,-0.3545872936468234,-9.802790255127563,-0.06,0.03001000500250125,-0.29003001500750375,0,0,0,45.5
2062330,-0.6287193596798399,-0.2345872936468234,-9.812790255127563,-0.06,0.03001000500250125,-0.9600300150075037,0,0,0,45.31
2062340,-0.7287193596798399,0.015412706353176597,-9.812790255127563,-0.05,0.04001000500250125,-1.2600300150075037,0,0,0,45.43
2062350,-0.6987193596798399,0.1654127063531766,-9.812790255127563,-0.03,0.06001000500250125,-1.3300300150075037,0,0,0,45.43
2062360,-0.4887193596798399,0.1454127063531766,-9.812790255127563,-0.03,0.08001000500250126,-1.4200300150075036,0,0,0,45.37
2062370,-0.30871935967983993,0.015412706353176597,-9.812790255127563,-0.03,0.05001000500250125,-1.1900300150075036,0,0,0,45.5
2062380,-0.16871935967983992,-0.034587293646823405,-9.812790255127563,-0.05,0.03001000500250125,-0.6700300150075038,0,0,0,45.5
2062390,-0.10871935967983992,-0.11458729364682341,-9.822790255127563,-0.06,0.010010005002501252,-0.29003001500750375,0,0,0,45.5
2062400,-0.12871935967983994,-0.19458729364682342,-9.822790255127563,-0.07,1.0005002501250626e-05,-0.22003001500750374,0,0,0,45.37
2062410,-0.14871935967983993,-0.2045872936468234,-9.812790255127563,-0.1,0.02001000500250125,-0.3200300150075038,0,0,0,45.37
2062420,-0.15871935967983994,-0.1645872936468234,-9.802790255127563,-0.1,0.03001000500250125,-0.25003001500750377,0,0,0,45.31
2062430,-0.10871935967983992,-0.13458729364682342,-9.812790255127563,-0.09,0.03001000500250125,0.029969984992496247,0,0,0,45.31
2062440,-0.14871935967983993,-0.04458729364682341,-9.812790255127563,-0.04,0.02001000500250125,0.6299699849924962,0,0,0,45.5
2062450,-0.31871935967983994,0.06541270635317659,-9.812790255127563,0.0,0.010010005002501252,1.1599699849924963,0,0,0,45.31
2062460,-0.49871935967983994,0.0854127063531766,-9.812790255127563,0.03,0.010010005002501252,1.4199699849924963,0,0,0,45.43
2062470,-0.6887193596798399,0.045412706353176596,-9.812790255127563,0.03,0.010010005002501252,1.4099699849924963,0,0,0,45.62
2062480,-0.6887193596798399,0.0054127063531765884,-9.812790255127563,0.01,0.02001000500250125,1.1699699849924963,0,0,0,45.43
2062490,-0.53871935967984,-0.0645872936468234,-9.802790255127563,0.0,0.03001000500250125,0.9299699849924963,0,0,0,45.37
2062500,-0.4087193596798399,-0.10458729364682341,-9.812790255127563,-0.03,0.02001000500250125,0.7699699849924962,0,0,0,45.31
2062510,-0.30871935967983993,-0.08458729364682341,-9.802790255127563,-0.04,0.010010005002501252,0.6199699849924962,0,0,0,45.25
2062520,-0.2787193596798399,-0.034587293646823405,-9.802790255127563,-0.02,0.02001000500250125,0.4799699849924962,0,0,0,45.25
2062530,-0.20871935967983993,-0.02458729364682341,-9.802790255127563,-0.01,0.02001000500250125,0.33996998499249625,0,0,0,45.37
2062540,-0.25871935967983994,0.0054127063531765884,-9.812790255127563,0.02,0.02001000500250125,0.2999699849924962,0,0,0,45.37
2062550,-0.26871935967983995,0.0054127063531765884,-9.822790255127563,0.04,0.02001000500250125,0.2899699849924962,0,0,0,45.25
2062562,-0.3587193596798399,0.0054127063531765884,-9.822790255127563,0.06,0.010010005002501252,0.27996998499249626,0,0,0,45.43
2062570,-0.4587193596798399,-0.004587293646823407,-9.822790255127563,0.06,1.0005002501250626e-05,0.21996998499249626,0,0,0,45.5
2062580,-0.42871935967983993,-0.04458729364682341,-9.812790255127563,0.04,1.0005002501250626e-05,0.10996998499249624,0,0,0,45.37
2062590,-0.14871935967983993,-0.0645872936468234,-9.822790255127563,-0.03,0.05001000500250125,0.019969984992496248,0,0,0,45.31
2062600,0.01128064032016008,-0.034587293646823405,-9.822790255127563,-0.09,0.09001000500250125,-3.0015007503751875e-05,0,0,0,45.37
2062610,0.05128064032016008,-0.014587293646823402,-9.812790255127563,-0.07,0.06001000500250125,-3.0015007503751875e-05,0,0,0,45.37
2062620,0.05128064032016008,-0.014587293646823402,-9.812790255127563,-0.01,1.0005002501250626e-05,-3.0015007503751875e-05,0,0,0,45.31
2062630,0.021280640320160082,-0.02458729364682341,-9.822790255127563,0.0,-0.01998999499749875,-3.0015007503751875e-05,0,0,0,45.43
2062640,0.01128064032016008,-0.034587293646823405,-9.822790255127563,0.0,-0.01998999499749875,-3.0015007503751875e-05,0,0,0,45.31
2062650,0.0012806403201600803,-0.034587293646823405,-9.812790255127563,-0.03,-0.009989994997498749,0.009969984992496248,0,0,0,45.12
2062660,0.01128064032016008,-0.02458729364682341,-9.822790255127563,-0.02,0.02001000500250125,-3.0015007503751875e-05,0,0,0,45.37
2062670,0.01128064032016008,-0.02458729364682341,-9.822790255127563,-0.02,0.04001000500250125,-3.0015007503751875e-05,0,0,0,45.5
2062680,0.01128064032016008,-0.014587293646823402,-9.812790255127563,0.0,0.04001000500250125,-3.0015007503751875e-05,0,0,0,45.31
2062690,0.021280640320160082,-0.02458729364682341,-9.812790255127563,0.03,0.02001000500250125,-3.0015007503751875e-05,0,0,0,45.31
2062700,0.021280640320160082,-0.02458729364682341,-9.802790255127563,0.05,1.0005002501250626e-05,-3.0015007503751875e-05,0,0,0,45.31
2062710,0.01128064032016008,-0.02458729364682341,-9.802790255127563,0.05,-0.02998999499749875,-3.0015007503751875e-05,0,0,0,45.5
2062720,0.01128064032016008,-0.04458729364682341,-9.802790255127563,0.01,-0.02998999499749875,-3.0015007503751875e-05,0,0,0,45.37
2062730,0.0012806403201600803,0.045412706353176596,-9.822790255127563,0.0,-0.01998999499749875,-3.0015007503751875e-05,0,0,0,45.43
2062740,-0.01871935967983992,-0.0645872936468234,-9.822790255127563,-0.12,1.0005002501250626e-05,-3.0015007503751875e-05,0,0,0,45.43
2062752,-0.00871935967983992,-0.014587293646823402,-9.822790255127563,-0.23,0.11001000500250126,0.009969984992496248,0,0,0,45.31
2062760,-0.00871935967983992,-0.04458729364682341,-9.822790255127563,-0.16,0.15001000500250125,-3.0015007503751875e-05,0,0,0,45.31
2062770,0.01128064032016008,-0.014587293646823402,-9.812790255127563,-0.12,0.16001000500250126,-3.0015007503751875e-05,0,0,0,45.43
2062780,0.01128064032016008,0.015412706353176597,-9.832790255127563,-0.02,0.16001000500250126,-3.0015007503751875e-05,0,0,0,45.31
2062790,0.03128064032016008,-0.014587293646823402,-9.832790255127563,0.04,0.15001000500250125,-3.0015007503751875e-05,0,0,0,45.37
2062800,0.07128064032016007,-0.05458729364682341,-9.792790255127564,0.0,0.07001000500250126,-3.0015007503751875e-05,0,0,0,45.31
2062810,0.05128064032016008,-0.04458729364682341,-9.802790255127563,-0.11,-0.04998999499749875,-3.0015007503751875e-05,0,0,0,45.37
2062820,0.021280640320160082,-0.02458729364682341,-9.822790255127563,-0.12,-0.10998999499749874,-3.0015007503751875e-05,0,0,0,45.62
2062830,0.01128064032016008,-0.014587293646823402,-9.822790255127563,-0.13,-0.08998999499749874,-3.0015007503751875e-05,0,0,0,45.31
2062840,0.01128064032016008,0.0054127063531765884,-9.832790255127563,-0.08,-0.03998999499749875,-3.0015007503751875e-05,0,0,0,45.31
2062850,0.01128064032016008,-0.04458729364682341,-9.822790255127563,-0.07,-0.009989994997498749,-3.0015007503751875e-05,0,0,0,45.5
2062860,0.01128064032016008,-0.08458729364682341,-9.782790255127564,-0.25,-0.01998999499749875,-3.0015007503751875e-05,0,0,0,45.37
2062870,0.01128064032016008,0.1454127063531766,-9.822790255127563,-0.76,0.14001000500250127,0.009969984992496248,0,0,0,45.37
2062880,0.04128064032016008,0.045412706353176596,-9.822790255127563,-0.47,0.11001000500250126,0.009969984992496248,0,0,0,45.5
2062890,0.04128064032016008,-0.004587293646823407,-9.812790255127563,-0.28,0.07001000500250126,0.009969984992496248,0,0,0,45.31
2062900,0.021280640320160082,0.045412706353176596,-9.802790255127563,-0.18,0.03001000500250125,-3.0015007503751875e-05,0,0,0,45.31
2062910,0.021280640320160082,0.0054127063531765884,-9.802790255127563,-0.04,0.010010005002501252,-3.0015007503751875e-05,0,0,0,45.5
2062920,0.021280640320160082,-0.004587293646823407,-9.812790255127563,-0.01,0.010010005002501252,-3.0015007503751875e-05,0,0,0,45.37
2062930,0.021280640320160082,-0.004587293646823407,-9.812790255127563,0.0,1.0005002501250626e-05,-3.0015007503751875e-05,0,0,0,45.5
2062940,0.021280640320160082,0.0054127063531765884,-9.822790255127563,0.0,1.0005002501250626e-05,-3.0015007503751875e-05,0,0,0,45.56
2062950,0.03128064032016008,-0.004587293646823407,-9.832790255127563,0.0,1.0005002501250626e-05,-3.0015007503751875e-05,0,0,0,45.5
2062960,0.021280640320160082,-0.004587293646823407,-9.822790255127563,0.0,1.0005002501250626e-05,-3.0015007503751875e-05,0,0,0,45.56
2062970,0.021280640320160082,0.0054127063531765884,-9.812790255127563,0.0,1.0005002501250626e-05,-3.0015007503751875e-05,0,0,0,45.37
2062980,0.021280640320160082,0.015412706353176597,-9.812790255127563,0.0,1.0005002501250626e-05,-3.0015007503751875e-05,0,0,0,45.56
2062990,0.021280640320160082,0.015412706353176597,-9.812790255127563,0.0,1.0005002501250626e-05,-3.0015007503751875e-05,0,0,0,45.37
2063002,0.021280640320160082,-0.004587293646823407,-9.822790255127563,0.0,1.0005002501250626e-05,-3.0015007503751875e-05,0,0,0,45.5
2063010,0.021280640320160082,-0.014587293646823402,-9.822790255127563,0.0,1.0005002501250626e-05,-3.0015007503751875e-05,0,0,0,45.5
2063020,0.021280640320160082,-0.004587293646823407,-9.812790255127563,0.0,1.0005002501250626e-05,-3.0015007503751875e-05,0,0,0,45.31
2063030,0.021280640320160082,-0.004587293646823407,-9.812790255127563,0.0,1.0005002501250626e-05,-3.0015007503751875e-05,0,0,0,45.31
2063040,0.021280640320160082,0.0054127063531765884,-9.802790255127563,0.0,1.0005002501250626e-05,-3.0015007503751875e-05,0,0,0,45.43
2063050,0.021280640320160082,0.0054127063531765884,-9.802790255127563,0.0,1.0005002501250626e-05,-3.0015007503751875e-05,0,0,0,45.37
2063060,0.01128064032016008,-0.004587293646823407,-9.812790255127563,0.0,1.0005002501250626e-05,-3.0015007503751875e-05,0,0,0,45.5
2063070,0.021280640320160082,0.0054127063531765884,-9.812790255127563,0.0,1.0005002501250626e-05,-3.0015007503751875e-05,0,0,0,45.5
2063080,0.021280640320160082,0.015412706353176597,-9.802790255127563,0.0,1.0005002501250626e-05,-3.0015007503751875e-05,0,0,0,45.37
2063090,0.021280640320160082,0.0054127063531765884,-9.802790255127563,0.0,1.0005002501250626e-05,-3.0015007503751875e-05,0,0,0,45.43
2063100,0.021280640320160082,0.0054127063531765884,-9.812790255127563,0.0,1.0005002501250626e-05,-3.0015007503751875e-05,0,0,0,45.31
2063110,0.01128064032016008,0.0054127063531765884,-9.812790255127563,0.0,1.0005002501250626e-05,-3.0015007503751875e-05,0,0,0,45.5
2063120,0.01128064032016008,0.0054127063531765884,-9.812790255127563,0.0,1.0005002501250626e-05,-3.0015007503751875e-05,0,0,0,45.18
2063130,0.021280640320160082,0.0054127063531765884,-9.822790255127563,0.0,1.0005002501250626e-05,-3.0015007503751875e-05,0,0,0,45.5
2063140,0.021280640320160082,-0.004587293646823407,-9.822790255127563,0.0,1.0005002501250626e-05,-3.0015007503751875e-05,0,0,0,45.37
2063150,0.021280640320160082,-0.004587293646823407,-9.812790255127563,0.0,1.0005002501250626e-05,-3.0015007503751875e-05,0,0,0,45.37
2063160,0.021280640320160082,0.0054127063531765884,-9.812790255127563,0.0,1.0005002501250626e-05,-3.0015007503751875e-05,0,0,0,45.31
2063170,0.021280640320160082,0.0054127063531765884,-9.812790255127563,0.0,1.0005002501250626e-05,-3.0015007503751875e-05,0,0,0,45.31
2063180,0.021280640320160082,0.0054127063531765884,-9.812790255127563,0.0,1.0005002501250626e-05,-3.0015007503751875e-05,0,0,0,45.31
2063190,0.021280640320160082,0.0054127063531765884,-9.812790255127563,0.0,1.0005002501250626e-05,-3.0015007503751875e-05,0,0,0,45.56
2063200,0.021280640320160082,0.0054127063531765884,-9.812790255127563,0.0,1.0005002501250626e-05,-3.0015007503751875e-05,0,0,0,45.31
2063210,0.021280640320160082,0.0054127063531765884,-9.822790255127563,0.0,1.0005002501250626e-05,-3.0015007503751875e-05,0,0,0,45.31
2063220,0.021280640320160082,0.0054127063531765884,-9.812790255127563,0.0,1.0005002501250626e-05,-3.0015007503751875e-05,0,0,0,45.5
2063230,0.021280640320160082,-0.004587293646823407,-9.812790255127563,0.0,1.0005002501250626e-05,-3.0015007503751875e-05,0,0,0,45.31
2063240,0.021280640320160082,0.0054127063531765884,-9.802790255127563,0.0,1.0005002501250626e-05,-3.0015007503751875e-05,0,0,0,45.5
2063250,0.01128064032016008,0.0054127063531765884,-9.812790255127563,0.0,1.0005002501250626e-05,-3.0015007503751875e-05,0,0,0,45.5
2063260,0.01128064032016008,0.0054127063531765884,-9.812790255127563,0.0,1.0005002501250626e-05,-3.0015007503751875e-05,0,0,0,45.12
2063270,0.01128064032016008,0.0054127063531765884,-9.812790255127563,0.0,1.0005002501250626e-05,-3.0015007503751875e-05,0,0,0,45.5
2063280,0.021280640320160082,0.0054127063531765884,-9.812790255127563,0.0,1.0005002501250626e-05,-3.0015007503751875e-05,0,0,0,45.31
2063290,0.021280640320160082,0.0054127063531765884,-9.812790255127563,0.0,1.0005002501250626e-05,-3.0015007503751875e-05,0,0,0,45.37
2063300,0.021280640320160082,0.0054127063531765884,-9.812790255127563,0.0,1.0005002501250626e-05,-3.0015007503751875e-05,0,0,0,45.37
2063310,0.01128064032016008,-0.004587293646823407,-9.802790255127563,0.0,1.0005002501250626e-05,-3.0015007503751875e-05,0,0,0,45.5
2063320,0.01128064032016008,0.0054127063531765884,-9.802790255127563,0.0,1.0005002501250626e-05,-3.0015007503751875e-05,0,0,0,45.31
2063330,0.021280640320160082,0.0054127063531765884,-9.802790255127563,0.0,1.0005002501250626e-05,-3.0015007503751875e-05,0,0,0,45.31
2063340,0.021280640320160082,0.0054127063531765884,-9.802790255127563,0.0,1.0005002501250626e-05,-3.0015007503751875e-05,0,0,0,45.56
2063350,0.021280640320160082,0.0054127063531765884,-9.802790255127563,0.0,1.0005002501250626e-05,-3.0015007503751875e-05,0,0,0,45.5
2063360,0.021280640320160082,-0.004587293646823407,-9.802790255127563,0.0,1.0005002501250626e-05,-3.0015007503751875e-05,0,0,0,45.5
2063370,0.021280640320160082,0.0054127063531765884,-9.802790255127563,0.0,1.0005002501250626e-05,-3.0015007503751875e-05,0,0,0,45.5
2063380,0.021280640320160082,0.0054127063531765884,-9.812790255127563,0.0,1.0005002501250626e-05,-3.0015007503751875e-05,0,0,0,45.5
2063390,0.021280640320160082,-0.004587293646823407,-9.812790255127563,0.0,1.0005002501250626e-05,-3.0015007503751875e-05,0,0,0,45.37
2063400,0.021280640320160082,0.0054127063531765884,-9.812790255127563,0.0,1.0005002501250626e-05,-3.0015007503751875e-05,0,0,0,45.31
2063410,0.01128064032016008,0.0054127063531765884,-9.812790255127563,0.0,1.0005002501250626e-05,-3.0015007503751875e-05,0,0,0,45.31
2063420,0.01128064032016008,0.0054127063531765884,-9.812790255127563,0.0,1.0005002501250626e-05,-3.0015007503751875e-05,0,0,0,45.31
2063430,0.021280640320160082,0.0054127063531765884,-9.802790255127563,0.0,1.0005002501250626e-05,-3.0015007503751875e-05,0,0,0,45.31
2063440,0.021280640320160082,0.0054127063531765884,-9.802790255127563,0.0,1.0005002501250626e-05,-3.0015007503751875e-05,0,0,0,45.37
2063450,0.021280640320160082,0.0054127063531765884,-9.812790255127563,0.0,1.0005002501250626e-05,-3.0015007503751875e-05,0,0,0,45.56
2063460,0.01128064032016008,-0.004587293646823407,-9.812790255127563,0.0,1.0005002501250626e-05,-3.0015007503751875e-05,0,0,0,45.5
2063470,0.01128064032016008,0.0054127063531765884,-9.812790255127563,0.0,1.0005002501250626e-05,-3.0015007503751875e-05,0,0,0,45.31
2063480,0.021280640320160082,0.0054127063531765884,-9.812790255127563,0.0,1.0005002501250626e-05,-3.0015007503751875e-05,0,0,0,45.12
2063490,0.021280640320160082,-0.004587293646823407,-9.812790255127563,0.0,1.0005002501250626e-05,-3.0015007503751875e-05,0,0,0,45.56
2063500,0.021280640320160082,-0.004587293646823407,-9.822790255127563,0.0,1.0005002501250626e-05,-3.0015007503751875e-05,0,0,0,45.43
2063510,0.021280640320160082,0.0054127063531765884,-9.822790255127563,0.0,1.0005002501250626e-05,-3.0015007503751875e-05,0,0,0,45.37
2063520,0.021280640320160082,0.0054127063531765884,-9.812790255127563,0.0,1.0005002501250626e-05,-3.0015007503751875e-05,0,0,0,45.12
2063530,0.021280640320160082,-0.004587293646823407,-9.812790255127563,0.0,1.0005002501250626e-05,-3.0015007503751875e-05,0,0,0,45.37
2063540,0.01128064032016008,-0.004587293646823407,-9.822790255127563,0.0,1.0005002501250626e-05,-3.0015007503751875e-05,0,0,0,45.25
2063550,0.021280640320160082,-0.004587293646823407,-9.822790255127563,0.0,1.0005002501250626e-05,-3.0015007503751875e-05,0,0,0,45.62
2063560,0.03128064032016008,-0.004587293646823407,-9.812790255127563,0.0,1.0005002501250626e-05,-3.0015007503751875e-05,0,0,0,45.31
2063570,0.021280640320160082,0.0054127063531765884,-9.802790255127563,0.0,1.0005002501250626e-05,-3.0015007503751875e-05,0,0,0,45.56
2063580,0.021280640320160082,0.0054127063531765884,-9.802790255127563,0.0,1.0005002501250626e-05,-3.0015007503751875e-05,0,0,0,45.43
2063590,0.021280640320160082,0.0054127063531765884,-9.802790255127563,0.0,1.0005002501250626e-05,-3.0015007503751875e-05,0,0,0,45.43
2063600,0.021280640320160082,-0.004587293646823407,-9.802790255127563,0.0,1.0005002501250626e-05,-3.0015007503751875e-05,0,0,0,45.43
2063610,0.021280640320160082,-0.004587293646823407,-9.812790255127563,0.0,1.0005002501250626e-05,-3.0015007503751875e-05,0,0,0,45.31
2063620,0.01128064032016008,0.0054127063531765884,-9.812790255127563,0.0,1.0005002501250626e-05,-3.0015007503751875e-05,0,0,0,45.43
2063630,0.021280640320160082,-0.004587293646823407,-9.812790255127563,0.0,1.0005002501250626e-05,-3.0015007503751875e-05,0,0,0,45.25
2063640,0.03128064032016008,0.0054127063531765884,-9.822790255127563,0.0,1.0005002501250626e-05,-3.0015007503751875e-05,0,0,0,45.37
2063650,0.03128064032016008,-0.004587293646823407,-9.822790255127563,0.0,1.0005002501250626e-05,-3.0015007503751875e-05,0,0,0,45.37
2063660,0.03128064032016008,-0.004587293646823407,-9.822790255127563,0.0,1.0005002501250626e-05,-3.0015007503751875e-05,0,0,0,45.62
2063670,0.021280640320160082,-0.004587293646823407,-9.822790255127563,0.0,1.0005002501250626e-05,-3.0015007503751875e-05,0,0,0,45.5
2063680,0.021280640320160082,0.0054127063531765884,-9.812790255127563,0.0,1.0005002501250626e-05,-3.0015007503751875e-05,0,0,0,45.5
2063690,0.021280640320160082,0.0054127063531765884,-9.812790255127563,0.0,1.0005002501250626e-05,-3.0015007503751875e-05,0,0,0,45.37
2063702,0.021280640320160082,-0.004587293646823407,-9.812790255127563,0.0,1.0005002501250626e-05,-3.0015007503751875e-05,0,0,0,45.31
2063710,0.021280640320160082,-0.004587293646823407,-9.822790255127563,0.0,1.0005002501250626e-05,-3.0015007503751875e-05,0,0,0,45.43
2063720,0.021280640320160082,0.0054127063531765884,-9.822790255127563,0.0,1.0005002501250626e-05,-3.0015007503751875e-05,0,0,0,45.25
2063730,0.021280640320160082,0.0054127063531765884,-9.812790255127563,0.0,1.0005002501250626e-05,-3.0015007503751875e-05,0,0,0,45.31
2063740,0.021280640320160082,0.0054127063531765884,-9.802790255127563,0.0,1.0005002501250626e-05,-3.0015007503751875e-05,0,0,0,45.5
2063750,0.03128064032016008,-0.004587293646823407,-9.812790255127563,0.0,1.0005002501250626e-05,-3.0015007503751875e-05,0,0,0,45.5
2063760,0.021280640320160082,0.0054127063531765884,-9.812790255127563,0.0,1.0005002501250626e-05,-3.0015007503751875e-05,0,0,0,45.5
2063770,0.01128064032016008,0.0054127063531765884,-9.812790255127563,0.0,1.0005002501250626e-05,-3.0015007503751875e-05,0,0,0,45.43
2063780,0.01128064032016008,0.0054127063531765884,-9.812790255127563,0.0,1.0005002501250626e-05,-3.0015007503751875e-05,0,0,0,45.31
2063790,0.021280640320160082,-0.004587293646823407,-9.812790255127563,0.0,1.0005002501250626e-05,-3.0015007503751875e-05,0,0,0,45.75
2063800,0.01128064032016008,-0.004587293646823407,-9.812790255127563,0.0,1.0005002501250626e-05,-3.0015007503751875e-05,0,0,0,45.5
2063810,0.01128064032016008,-0.004587293646823407,-9.812790255127563,0.0,1.0005002501250626e-05,-3.0015007503751875e-05,0,0,0,45.5
2063820,0.01128064032016008,-0.004587293646823407,-9.812790255127563,0.0,1.0005002501250626e-05,-3.0015007503751875e-05,0,0,0,45.5
2063830,0.021280640320160082,0.0054127063531765884,-9.802790255127563,0.0,1.0005002501250626e-05,-3.0015007503751875e-05,0,0,0,45.31
2063840,0.01128064032016008,0.0054127063531765884,-9.802790255127563,0.0,1.0005002501250626e-05,-3.0015007503751875e-05,0,0,0,45.5
2063850,0.01128064032016008,0.0054127063531765884,-9.802790255127563,0.0,1.0005002501250626e-05,-3.0015007503751875e-05,0,0,0,45.12
2063860,0.01128064032016008,0.0054127063531765884,-9.802790255127563,0.0,1.0005002501250626e-05,-3.0015007503751875e-05,0,0,0,45.43
2063870,0.021280640320160082,0.0054127063531765884,-9.812790255127563,0.0,1.0005002501250626e-05,-3.0015007503751875e-05,0,0,0,45.62
2063880,0.021280640320160082,0.0054127063531765884,-9.802790255127563,0.0,1.0005002501250626e-05,-3.0015007503751875e-05,0,0,0,45.75
2063890,0.021280640320160082,-0.004587293646823407,-9.812790255127563,0.0,1.0005002501250626e-05,-3.0015007503751875e-05,0,0,0,45.37
2063902,0.03128064032016008,-0.004587293646823407,-9.812790255127563,0.0,1.0005002501250626e-05,-3.0015007503751875e-05,0,0,0,45.31
2063910,0.021280640320160082,-0.004587293646823407,-9.812790255127563,0.0,1.0005002501250626e-05,-3.0015007503751875e-05,0,0,0,45.56
2063920,0.021280640320160082,-0.004587293646823407,-9.812790255127563,0.0,1.0005002501250626e-05,-3.0015007503751875e-05,0,0,0,45.5
2063930,0.021280640320160082,-0.004587293646823407,-9.812790255127563,0.0,1.0005002501250626e-05,-3.0015007503751875e-05,0,0,0,45.12
2063940,0.021280640320160082,0.0054127063531765884,-9.822790255127563,0.0,1.0005002501250626e-05,-3.0015007503751875e-05,0,0,0,45.31
2063952,0.03128064032016008,-0.004587293646823407,-9.812790255127563,0.0,1.0005002501250626e-05,-3.0015007503751875e-05,0,0,0,45.37
2063960,0.03128064032016008,-0.004587293646823407,-9.812790255127563,0.0,1.0005002501250626e-05,-3.0015007503751875e-05,0,0,0,45.37
2063970,0.021280640320160082,0.0054127063531765884,-9.802790255127563,0.0,1.0005002501250626e-05,-3.0015007503751875e-05,0,0,0,45.25
2063980,0.01128064032016008,0.0054127063531765884,-9.812790255127563,0.0,1.0005002501250626e-05,-3.0015007503751875e-05,0,0,0,45.43
2063990,0.01128064032016008,0.0054127063531765884,-9.812790255127563,0.0,1.0005002501250626e-05,-3.0015007503751875e-05,0,0,0,45.5
2064002,0.021280640320160082,-0.004587293646823407,-9.812790255127563,0.0,1.0005002501250626e-05,-3.0015007503751875e-05,0,0,0,45.31
2064010,0.021280640320160082,-0.004587293646823407,-9.812790255127563,0.0,1.0005002501250626e-05,-3.0015007503751875e-05,0,0,0,45.37
2064020,0.021280640320160082,0.0054127063531765884,-9.812790255127563,0.0,1.0005002501250626e-05,-3.0015007503751875e-05,0,0,0,45.5
2064030,0.021280640320160082,0.0054127063531765884,-9.802790255127563,0.0,1.0005002501250626e-05,-3.0015007503751875e-05,0,0,0,45.43
2064040,0.01128064032016008,0.0054127063531765884,-9.812790255127563,0.0,1.0005002501250626e-05,-3.0015007503751875e-05,0,0,0,45.56
2064050,0.021280640320160082,-0.004587293646823407,-9.812790255127563,0.0,1.0005002501250626e-05,-3.0015007503751875e-05,0,0,0,45.31
2064060,0.01128064032016008,-0.004587293646823407,-9.812790255127563,0.0,1.0005002501250626e-05,-3.0015007503751875e-05,0,0,0,45.43
2064070,0.01128064032016008,-0.004587293646823407,-9.812790255127563,0.0,1.0005002501250626e-05,-3.0015007503751875e-05,0,0,0,45.37
2064080,0.01128064032016008,0.0054127063531765884,-9.812790255127563,0.0,1.0005002501250626e-05,-3.0015007503751875e-05,0,0,0,45.25
2064090,0.021280640320160082,-0.004587293646823407,-9.812790255127563,0.0,1.0005002501250626e-05,-3.0015007503751875e-05,0,0,0,45.37
2064100,0.021280640320160082,0.0054127063531765884,-9.822790255127563,0.0,1.0005002501250626e-05,-3.0015007503751875e-05,0,0,0,45.31
2064110,0.03128064032016008,0.0054127063531765884,-9.812790255127563,0.0,1.0005002501250626e-05,-3.0015007503751875e-05,0,0,0,45.68
2064120,0.021280640320160082,0.0054127063531765884,-9.812790255127563,0.0,1.0005002501250626e-05,-3.0015007503751875e-05,0,0,0,45.43
2064130,0.01128064032016008,0.0054127063531765884,-9.812790255127563,0.0,1.0005002501250626e-05,-3.0015007503751875e-05,0,0,0,45.37
2064140,0.021280640320160082,0.0054127063531765884,-9.812790255127563,0.0,1.0005002501250626e-05,-3.0015007503751875e-05,0,0,0,45.31
2064150,0.05128064032016008,0.025412706353176592,-9.792790255127564,0.0,-0.09998999499749875,-3.0015007503751875e-05,0,0,0,45.37
2064160,0.04128064032016008,0.055412706353176605,-9.802790255127563,0.1,-0.20998999499749874,-3.0015007503751875e-05,0,0,0,45.56
2064170,0.0012806403201600803,-0.02458729364682341,-9.832790255127563,0.27,-0.24998999499749874,-3.0015007503751875e-05,0,0,0,45.31
2064180,-0.01871935967983992,-0.014587293646823402,-9.842790255127563,0.26,-0.12998999499749875,-3.0015007503751875e-05,0,0,0,45.5
2064190,-0.00871935967983992,-0.034587293646823405,-9.832790255127563,0.17,1.0005002501250626e-05,-3.0015007503751875e-05,0,0,0,45.31
2064202,0.021280640320160082,-0.004587293646823407,-9.822790255127563,0.0,0.10001000500250126,-3.0015007503751875e-05,0,0,0,45.25
2064212,0.03128064032016008,0.015412706353176597,-9.812790255127563,0.02,0.07001000500250126,-3.0015007503751875e-05,0,0,0,45.31
2064220,0.01128064032016008,0.0054127063531765884,-9.812790255127563,0.07,0.06001000500250125,-3.0015007503751875e-05,0,0,0,45.37
2064230,-0.00871935967983992,-0.004587293646823407,-9.822790255127563,0.02,0.12001000500250125,-3.0015007503751875e-05,0,0,0,45.37
2064240,0.04128064032016008,0.055412706353176605,-9.822790255127563,0.18,0.14001000500250127,0.03996998499249625,0,0,0,45.5
2064250,0.03128064032016008,-0.034587293646823405,-9.812790255127563,0.27,0.09001000500250125,0.03996998499249625,0,0,0,45.31
2064260,0.01128064032016008,-0.08458729364682341,-9.802790255127563,0.12,0.08001000500250126,0.029969984992496247,0,0,0,45.5
2064270,0.021280640320160082,-0.07458729364682341,-9.782790255127564,-0.12,0.09001000500250125,-3.0015007503751875e-05,0,0,0,45.31
2064280,0.03128064032016008,0.0054127063531765884,-9.802790255127563,-0.24,0.07001000500250126,-3.0015007503751875e-05,0,0,0,45.56
2064290,0.04128064032016008,0.015412706353176597,-9.802790255127563,-0.18,0.010010005002501252,-3.0015007503751875e-05,0,0,0,45.31
2064300,0.03128064032016008,-0.004587293646823407,-9.812790255127563,-0.13,1.0005002501250626e-05,-3.0015007503751875e-05,0,0,0,45.37
2064312,0.021280640320160082,0.015412706353176597,-9.812790255127563,-0.09,-0.01998999499749875,-3.0015007503751875e-05,0,0,0,45.43
2064320,0.03128064032016008,0.015412706353176597,-9.812790255127563,-0.04,-0.02998999499749875,-3.0015007503751875e-05,0,0,0,45.31
2064330,0.03128064032016008,0.0054127063531765884,-9.812790255127563,0.03,-0.04998999499749875,-3.0015007503751875e-05,0,0,0,45.75
2064340,0.021280640320160082,0.0054127063531765884,-9.812790255127563,0.08,-0.04998999499749875,-3.0015007503751875e-05,0,0,0,45.5
2064350,0.03128064032016008,-0.02458729364682341,-9.812790255127563,0.07,-0.05998999499749875,-3.0015007503751875e-05,0,0,0,45.25
2064360,0.021280640320160082,-0.014587293646823402,-9.822790255127563,0.02,-0.07998999499749875,-3.0015007503751875e-05,0,0,0,45.31
2064370,0.021280640320160082,-0.004587293646823407,-9.812790255127563,0.03,-0.07998999499749875,-3.0015007503751875e-05,0,0,0,45.25
2064380,0.03128064032016008,-0.004587293646823407,-9.792790255127564,0.04,-0.12998999499749875,-3.0015007503751875e-05,0,0,0,45.43
2064390,0.03128064032016008,-0.014587293646823402,-9.792790255127564,0.02,-0.15998999499749875,-3.0015007503751875e-05,0,0,0,45.31
2064402,0.021280640320160082,-0.02458729364682341,-9.812790255127563,-0.02,-0.18998999499749875,-3.0015007503751875e-05,0,0,0,45.37
2064410,0.0012806403201600803,-0.014587293646823402,-9.822790255127563,-0.04,-0.18998999499749875,-3.0015007503751875e-05,0,0,0,45.25
2064420,0.0012806403201600803,-0.004587293646823407,-9.822790255127563,-0.05,-0.13998999499749876,-3.0015007503751875e-05,0,0,0,45.56
2064430,0.0012806403201600803,-0.004587293646823407,-9.812790255127563,-0.06,-0.07998999499749875,-3.0015007503751875e-05,0,0,0,45.25
2064440,0.01128064032016008,0.0054127063531765884,-9.812790255127563,-0.04,-0.04998999499749875,-3.0015007503751875e-05,0,0,0,45.12
2064450,0.021280640320160082,-0.014587293646823402,-9.802790255127563,-0.03,-0.03998999499749875,-3.0015007503751875e-05,0,0,0,45.5
2064460,0.01128064032016008,0.0054127063531765884,-9.802790255127563,-0.05,-0.05998999499749875,-3.0015007503751875e-05,0,0,0,45.37
2064470,0.01128064032016008,0.0054127063531765884,-9.792790255127564,-0.03,-0.05998999499749875,-3.0015007503751875e-05,0,0,0,45.31
2064480,0.01128064032016008,0.0054127063531765884,-9.802790255127563,-0.01,-0.03998999499749875,-3.0015007503751875e-05,0,0,0,45.37
2064490,0.01128064032016008,-0.004587293646823407,-9.812790255127563,0.0,-0.01998999499749875,-3.0015007503751875e-05,0,0,0,45.37
2064502,0.01128064032016008,0.0054127063531765884,-9.802790255127563,0.0,-0.009989994997498749,-3.0015007503751875e-05,0,0,0,45.25
2064510,0.01128064032016008,-0.004587293646823407,-9.802790255127563,0.01,1.0005002501250626e-05,-3.0015007503751875e-05,0,0,0,45.5
2064520,0.01128064032016008,-0.014587293646823402,-9.812790255127563,0.0,1.0005002501250626e-05,-3.0015007503751875e-05,0,0,0,45.37
2064530,0.01128064032016008,-0.004587293646823407,-9.822790255127563,0.0,1.0005002501250626e-05,-3.0015007503751875e-05,0,0,0,45.5
2064540,0.01128064032016008,-0.004587293646823407,-9.812790255127563,0.0,1.0005002501250626e-05,-3.0015007503751875e-05,0,0,0,45.31
2064550,0.01128064032016008,-0.014587293646823402,-9.812790255127563,-0.01,1.0005002501250626e-05,-3.0015007503751875e-05,0,0,0,45.31
2064560,0.01128064032016008,-0.004587293646823407,-9.802790255127563,-0.01,1.0005002501250626e-05,-3.0015007503751875e-05,0,0,0,45.31
2064570,0.021280640320160082,-0.004587293646823407,-9.792790255127564,0.0,1.0005002501250626e-05,-3.0015007503751875e-05,0,0,0,45.31
2064580,0.01128064032016008,-0.004587293646823407,-9.802790255127563,0.02,-0.009989994997498749,-3.0015007503751875e-05,0,0,0,45.31
2064590,0.01128064032016008,-0.004587293646823407,-9.812790255127563,0.03,1.0005002501250626e-05,-3.0015007503751875e-05,0,0,0,45.31
2064600,0.0012806403201600803,-0.014587293646823402,-9.812790255127563,0.03,1.0005002501250626e-05,-3.0015007503751875e-05,0,0,0,45.25
2064610,-0.00871935967983992,-0.02458729364682341,-9.822790255127563,0.01,0.02001000500250125,-3.0015007503751875e-05,0,0,0,45.31
2064620,-1.2287193596798398,-0.04458729364682341,-9.772790255127562,0.02,-0.13998999499749876,-0.11003001500750376,0,0,0,45.12
2064630,-1.5687193596798399,0.015412706353176597,-9.782790255127564,0.12,-0.18998999499749875,-0.21003001500750373,0,0,0,45.31
2064640,-0.3387193596798399,0.045412706353176596,-9.822790255127563,0.12,-0.14998999499749874,0.23996998499249625,0,0,0,45.5
2064650,-0.07871935967983992,0.03541270635317659,-9.802790255127563,0.11,-0.13998999499749876,1.1099699849924964,0,0,0,45.5
2064660,-0.23871935967983993,0.045412706353176596,-9.802790255127563,0.12,-0.10998999499749874,2.029969984992496,0,0,0,45.37
2064670,-0.49871935967983994,0.03541270635317659,-9.812790255127563,0.12,-0.09998999499749875,2.669969984992496,0,0,0,45.37
2064680,-0.7387193596798399,0.03541270635317659,-9.822790255127563,0.1,-0.06998999499749875,2.799969984992496,0,0,0,45.31
2064690,-0.8287193596798399,0.03541270635317659,-9.812790255127563,0.07,-0.05998999499749875,2.529969984992496,0,0,0,45.43
2064700,-0.9587193596798399,0.03541270635317659,-9.812790255127563,0.05,-0.04998999499749875,2.039969984992496,0,0,0,45.5
2064710,-1.2387193596798398,0.2454127063531766,-9.802790255127563,0.08,-0.03998999499749875,1.8099699849924964,0,0,0,45.5
2064720,-1.2487193596798398,0.6054127063531766,-9.792790255127564,0.15,-0.02998999499749875,2.029969984992496,0,0,0,45.5
2064730,-1.1587193596798397,0.8154127063531766,-9.802790255127563,0.21,-0.03998999499749875,2.859969984992496,0,0,0,45.5
2064740,-1.3087193596798399,0.9854127063531767,-9.812790255127563,0.21,-0.04998999499749875,4.119969984992497,0,0,0,45.43
2064750,-1.3887193596798397,0.6654127063531766,-9.812790255127563,0.14,-0.04998999499749875,4.799969984992496,0,0,0,45.56
2064760,-1.2687193596798398,0.09541270635317659,-9.802790255127563,0.06,-0.04998999499749875,4.389969984992496,0,0,0,45.5
2064770,-1.1487193596798397,-0.42458729364682346,-9.822790255127563,0.0,-0.07998999499749875,3.609969984992496,0,0,0,45.25
2064780,-1.2287193596798398,-0.7445872936468234,-9.812790255127563,-0.09,-0.08998999499749874,2.9899699849924963,0,0,0,45.56
2064790,-1.1787193596798398,-0.8045872936468234,-9.802790255127563,-0.16,-0.04998999499749875,1.8799699849924962,0,0,0,45.31
2064800,-1.1287193596798397,-0.7345872936468234,-9.822790255127563,-0.22,-0.02998999499749875,0.09996998499249625,0,0,0,45.5
2064810,-1.1987193596798398,-0.5745872936468234,-9.822790255127563,-0.25,1.0005002501250626e-05,-0.7400300150075038,0,0,0,45.5
2064820,-1.09871935967984,-0.2145872936468234,-9.812790255127563,-0.23,0.03001000500250125,-0.5000300150075038,0,0,0,45.43
2064830,-0.6287193596798399,0.1154127063531766,-9.802790255127563,-0.13,1.0005002501250626e-05,0.33996998499249625,0,0,0,45.5
2064840,-0.44871935967983995,0.20541270635317657,-9.802790255127563,-0.05,-0.07998999499749875,1.0799699849924964,0,0,0,45.37
2064850,-0.3987193596798399,0.1154127063531766,-9.802790255127563,0.0,-0.12998999499749875,1.3199699849924964,0,0,0,45.5
2064860,-0.09871935967983991,-0.12458729364682342,-9.822790255127563,0.0,-0.08998999499749874,1.1799699849924963,0,0,0,45.31
2064870,0.11128064032016008,-0.5445872936468235,-9.822790255127563,-0.06,-0.03998999499749875,0.8299699849924962,0,0,0,45.31
2064880,0.1512806403201601,-0.5645872936468234,-9.812790255127563,-0.04,-0.01998999499749875,0.5099699849924962,0,0,0,45.5
2064890,0.3312806403201601,-0.41458729364682345,-9.822790255127563,0.04,0.06001000500250125,0.49996998499249623,0,0,0,45.43
2064900,0.3912806403201601,-0.40458729364682344,-9.822790255127563,0.04,0.11001000500250126,0.5199699849924962,0,0,0,45.37
2064910,0.4012806403201601,-0.4645872936468234,-9.822790255127563,0.03,0.09001000500250125,0.3599699849924962,0,0,0,45.31
2064920,0.4112806403201601,-0.4945872936468234,-9.812790255127563,0.02,0.07001000500250126,-0.04003001500750375,0,0,0,45.31
2064930,0.21128064032016008,-0.5645872936468234,-9.822790255127563,0.0,0.02001000500250125,-0.7700300150075038,0,0,0,45.25
2064940,-0.07871935967983992,-0.44458729364682337,-9.822790255127563,0.02,1.0005002501250626e-05,-1.7400300150075036,0,0,0,45.5
2064952,-0.19871935967983992,-0.3145872936468234,-9.812790255127563,0.13,-0.10998999499749874,-2.670030015007504,0,0,0,45.31
2064960,-0.17871935967983993,-0.27458729364682344,-9.822790255127563,0.15,-0.14998999499749874,-3.190030015007504,0,0,0,45.5
2064970,-0.22871935967983992,-0.02458729364682341,-9.802790255127563,0.16,-0.10998999499749874,-4.150030015007504,0,0,0,45.25
2064980,0.19128064032016007,0.33541270635317655,-9.802790255127563,0.11,-0.009989994997498749,-5.5400300150075035,0,0,0,45.56
2064990,0.72128064032016,0.5354127063531766,-9.812790255127563,0.06,0.10001000500250126,-6.190030015007504,0,0,0,45.56
2065000,0.73128064032016,0.44541270635317665,-9.802790255127563,0.08,0.16001000500250126,-4.490030015007504,0,0,0,45.06
2065012,0.5612806403201601,0.30541270635317663,-9.812790255127563,0.15,0.19001000500250126,-1.0200300150075037,0,0,0,45.5
2065020,0.3512806403201601,0.1454127063531766,-9.822790255127563,0.09,0.15001000500250125,0.03996998499249625,0,0,0,45.5
2065030,0.05128064032016008,0.1054127063531766,-9.822790255127563,0.0,0.09001000500250125,0.12996998499249626,0,0,0,45.25
2065040,-0.07871935967983992,0.15541270635317658,-9.812790255127563,-0.04,0.010010005002501252,-0.09003001500750375,0,0,0,45.56
2065050,-0.07871935967983992,0.0854127063531766,-9.802790255127563,-0.05,-0.04998999499749875,-0.21003001500750373,0,0,0,45.5
2065060,0.17128064032016008,0.1054127063531766,-9.812790255127563,-0.04,-0.009989994997498749,-0.08003001500750376,0,0,0,45.43
2065070,0.37128064032016006,0.09541270635317659,-9.812790255127563,-0.01,0.02001000500250125,0.5799699849924962,0,0,0,45.43
2065080,0.4012806403201601,0.1154127063531766,-9.822790255127563,0.0,-0.009989994997498749,1.3399699849924964,0,0,0,45.56
2065090,0.36128064032016005,0.2554127063531766,-9.822790255127563,0.01,-0.03998999499749875,1.6399699849924962,0,0,0,45.31
2065102,0.38128064032016007,0.2954127063531766,-9.802790255127563,0.01,-0.06998999499749875,1.7499699849924963,0,0,0,45.31
2065110,0.3312806403201601,0.19541270635317662,-9.812790255127563,0.0,-0.07998999499749875,1.7899699849924964,0,0,0,45.31
2065120,0.20128064032016008,0.0054127063531765884,-9.822790255127563,-0.04,-0.06998999499749875,1.7299699849924963,0,0,0,45.5
2065130,0.06128064032016008,-0.07458729364682341,-9.812790255127563,-0.07,-0.03998999499749875,1.2999699849924964,0,0,0,45.31
2065140,0.01128064032016008,-0.10458729364682341,-9.812790255127563,-0.1,1.0005002501250626e-05,0.49996998499249623,0,0,0,45.56
2065150,0.06128064032016008,-0.05458729364682341,-9.812790255127563,-0.13,0.06001000500250125,-0.2600300150075038,0,0,0,45.25
2065162,-0.01871935967983992,0.06541270635317659,-9.812790255127563,-0.1,0.08001000500250126,-0.5600300150075038,0,0,0,45.43
2065170,-0.058719359679839926,0.15541270635317658,-9.812790255127563,-0.09,0.09001000500250125,-0.5600300150075038,0,0,0,45.37
2065180,-0.11871935967983993,0.2954127063531766,-9.802790255127563,-0.08,0.09001000500250125,-0.3400300150075038,0,0,0,45.31
2065190,-0.2987193596798399,0.2254127063531766,-9.802790255127563,-0.07,0.09001000500250125,-0.04003001500750375,0,0,0,45.12
2065200,-0.4187193596798399,0.06541270635317659,-9.802790255127563,-0.06,0.08001000500250126,-0.21003001500750373,0,0,0,45.37
2065210,-0.4687193596798399,0.0054127063531765884,-9.802790255127563,-0.01,0.06001000500250125,-0.5900300150075037,0,0,0,45.5
2065220,-0.52871935967984,0.0054127063531765884,-9.812790255127563,0.04,0.05001000500250125,-0.8000300150075038,0,0,0,45.37
2065230,-0.52871935967984,0.045412706353176596,-9.802790255127563,0.08,1.0005002501250626e-05,-0.7900300150075038,0,0,0,45.31
2065240,-0.3587193596798399,0.0754127063531766,-9.802790255127563,0.17,-0.07998999499749875,-0.5200300150075038,0,0,0,45.31
2065250,-0.00871935967983992,0.06541270635317659,-9.812790255127563,0.21,-0.07998999499749875,0.25996998499249624,0,0,0,45.12
2065262,0.04128064032016008,-0.1445872936468234,-9.812790255127563,0.12,0.02001000500250125,1.3499699849924964,0,0,0,45.56
2065270,-0.09871935967983991,-0.2145872936468234,-9.812790255127563,0.05,0.04001000500250125,1.4699699849924963,0,0,0,45.31
2065280,-0.2887193596798399,-0.15458729364682341,-9.812790255127563,0.0,1.0005002501250626e-05,1.0799699849924964,0,0,0,45.31
2065290,-0.3987193596798399,-0.10458729364682341,-9.812790255127563,-0.02,-0.009989994997498749,0.6299699849924962,0,0,0,45.31
2065300,-0.4587193596798399,-0.0945872936468234,-9.802790255127563,-0.02,1.0005002501250626e-05,0.2899699849924962,0,0,0,45.37
2065310,-0.51871935967984,-0.0945872936468234,-9.802790255127563,0.01,0.03001000500250125,0.21996998499249626,0,0,0,45.5
2065320,-0.6787193596798399,-0.0645872936468234,-9.802790255127563,0.07,0.010010005002501252,0.6199699849924962,0,0,0,45.56
2065330,-0.6987193596798399,0.055412706353176605,-9.812790255127563,0.09,0.010010005002501252,0.7199699849924962,0,0,0,45.37
2065340,-0.6087193596798399,0.2954127063531766,-9.812790255127563,0.1,0.06001000500250125,0.19996998499249627,0,0,0,45.37
2065350,-0.54871935967984,0.5954127063531767,-9.802790255127563,0.08,0.08001000500250126,-0.6500300150075038,0,0,0,45.56
2065362,-0.38871935967983995,0.7154127063531767,-9.802790255127563,0.02,0.09001000500250125,-1.8600300150075038,0,0,0,45.43
2065370,-0.13871935967983992,0.6154127063531766,-9.812790255127563,0.03,0.06001000500250125,-2.290030015007504,0,0,0,45.56
2065380,0.12128064032016009,0.2354127063531766,-9.822790255127563,0.04,1.0005002501250626e-05,-1.7500300150075037,0,0,0,45.5
2065390,0.22128064032016007,-0.1445872936468234,-9.822790255127563,0.03,-0.02998999499749875,-0.5400300150075038,0,0,0,45.37
2065400,0.19128064032016007,-0.43458729364682336,-9.832790255127563,0.02,-0.07998999499749875,0.7999699849924963,0,0,0,45.31
2065412,-0.01871935967983992,-0.5345872936468234,-9.822790255127563,-0.05,-0.12998999499749875,2.099969984992496,0,0,0,45.5
2065420,0.0012806403201600803,-0.4845872936468234,-9.822790255127563,-0.14,-0.11998999499749874,2.1599699849924963,0,0,0,45.5
2065430,0.2712806403201601,-0.40458729364682344,-9.822790255127563,-0.21,-0.09998999499749875,1.8499699849924964,0,0,0,45.5
2065440,0.4612806403201601,-0.3645872936468234,-9.822790255127563,-0.24,-0.08998999499749874,1.7899699849924964,0,0,0,45.43
2065450,0.59128064032016,-0.28458729364682345,-9.822790255127563,-0.21,-0.05998999499749875,1.6699699849924963,0,0,0,45.62
2065460,0.7412806403201601,-0.2045872936468234,-9.812790255127563,-0.15,-0.04998999499749875,1.4799699849924963,0,0,0,45.37
2065470,0.7712806403201601,-0.2045872936468234,-9.812790255127563,-0.1,-0.02998999499749875,1.3999699849924963,0,0,0,45.5
2065480,0.60128064032016,-0.2045872936468234,-9.812790255127563,-0.07,-0.01998999499749875,1.1099699849924964,0,0,0,45.56
2065490,0.42128064032016005,-0.0945872936468234,-9.812790255127563,0.0,-0.04998999499749875,0.6499699849924963,0,0,0,45.5
2065500,0.30128064032016005,0.015412706353176597,-9.802790255127563,0.08,-0.09998999499749875,0.4799699849924962,0,0,0,45.37
2065510,0.10128064032016007,0.015412706353176597,-9.812790255127563,0.13,-0.10998999499749874,0.6599699849924963,0,0,0,45.5
2065520,-0.01871935967983992,-0.08458729364682341,-9.822790255127563,0.11,-0.07998999499749875,0.9999699849924962,0,0,0,45.5
2065530,-0.2987193596798399,-0.2545872936468234,-9.822790255127563,0.08,-0.06998999499749875,1.7899699849924964,0,0,0,45.25
2065540,-0.5787193596798399,-0.3745872936468234,-9.812790255127563,0.05,-0.04998999499749875,1.8799699849924962,0,0,0,45.31
2065552,-0.52871935967984,-0.4545872936468234,-9.812790255127563,0.02,-0.04998999499749875,0.5999699849924962,0,0,0,45.5
2065560,-0.3987193596798399,-0.41458729364682345,-9.812790255127563,0.01,-0.05998999499749875,-0.10003001500750376,0,0,0,45.56
2065570,-0.11871935967983993,-0.2345872936468234,-9.822790255127563,0.0,-0.03998999499749875,-0.5000300150075038,0,0,0,45.31
2065580,0.10128064032016007,-0.05458729364682341,-9.822790255127563,-0.03,-0.009989994997498749,-0.6700300150075038,0,0,0,45.25
2065590,0.20128064032016008,0.20541270635317657,-9.822790255127563,-0.02,-0.01998999499749875,-0.8300300150075037,0,0,0,45.31
2065602,0.37128064032016006,0.32541270635317654,-9.812790255127563,-0.01,-0.06998999499749875,-0.9400300150075037,0,0,0,45.56
2065610,0.5512806403201601,0.2654127063531766,-9.812790255127563,-0.01,-0.07998999499749875,-0.9300300150075038,0,0,0,45.43
2065620,0.6312806403201601,0.09541270635317659,-9.812790255127563,-0.02,-0.03998999499749875,-0.5800300150075037,0,0,0,45.5
2065630,0.4712806403201601,0.015412706353176597,-9.812790255127563,-0.03,0.010010005002501252,-0.2800300150075038,0,0,0,45.31
2065640,0.3412806403201601,0.0054127063531765884,-9.802790255127563,-0.01,0.02001000500250125,-0.5600300150075038,0,0,0,45.31
2065650,0.3312806403201601,0.03541270635317659,-9.802790255127563,0.01,1.0005002501250626e-05,-0.9600300150075037,0,0,0,45.43
2065660,0.2712806403201601,0.0854127063531766,-9.802790255127563,0.01,-0.01998999499749875,-0.9400300150075037,0,0,0,45.25
2065670,0.14128064032016008,0.1454127063531766,-9.802790255127563,0.0,-0.009989994997498749,-0.6500300150075038,0,0,0,45.31
2065680,0.07128064032016007,0.055412706353176605,-9.802790255127563,-0.02,0.010010005002501252,-0.44003001500750377,0,0,0,45.31
2065690,0.05128064032016008,-0.08458729364682341,-9.812790255127563,-0.04,0.010010005002501252,-0.8300300150075037,0,0,0,45.43
2065700,0.12128064032016009,-0.12458729364682342,-9.822790255127563,-0.06,0.010010005002501252,-1.4200300150075036,0,0,0,45.62
2065710,0.24128064032016008,-0.11458729364682341,-9.812790255127563,-0.07,1.0005002501250626e-05,-1.5500300150075037,0,0,0,45.37
2065720,0.3412806403201601,-0.11458729364682341,-9.812790255127563,-0.07,-0.02998999499749875,-1.2500300150075037,0,0,0,45.56
2065730,0.3912806403201601,-0.13458729364682342,-9.812790255127563,-0.07,-0.03998999499749875,-0.6200300150075038,0,0,0,45.31
2065740,0.32128064032016007,-0.15458729364682341,-9.822790255127563,-0.06,-0.02998999499749875,0.12996998499249626,0,0,0,45.31
2065750,0.12128064032016009,-0.08458729364682341,-9.822790255127563,-0.05,-0.02998999499749875,0.49996998499249623,0,0,0,45.43
2065760,0.01128064032016008,0.055412706353176605,-9.812790255127563,-0.02,-0.01998999499749875,0.32996998499249625,0,0,0,45.43
2065770,0.01128064032016008,0.19541270635317662,-9.812790255127563,0.0,-0.009989994997498749,0.23996998499249625,0,0,0,45.31
2065780,-0.01871935967983992,0.2654127063531766,-9.822790255127563,-0.02,1.0005002501250626e-05,0.39996998499249625,0,0,0,45.5
2065790,-0.03871935967983992,0.21541270635317658,-9.812790255127563,-0.04,0.010010005002501252,0.4199699849924962,0,0,0,45.5
2065802,-0.00871935967983992,0.19541270635317662,-9.792790255127564,-0.02,0.03001000500250125,0.14996998499249625,0,0,0,45.31
2065810,0.021280640320160082,0.1154127063531766,-9.802790255127563,-0.02,0.03001000500250125,0.07996998499249625,0,0,0,45.62
2065820,-0.058719359679839926,-0.04458729364682341,-9.812790255127563,-0.02,0.04001000500250125,0.11996998499249624,0,0,0,45.43
2065830,-0.18871935967983994,-0.1745872936468234,-9.812790255127563,-0.01,0.07001000500250126,-0.20003001500750375,0,0,0,45.31
2065840,-0.2987193596798399,-0.2445872936468234,-9.812790255127563,0.0,0.08001000500250126,-0.8100300150075038,0,0,0,45.31
2065850,-0.32871935967983995,-0.10458729364682341,-9.812790255127563,0.03,0.05001000500250125,-1.1800300150075036,0,0,0,45.31
2065862,-0.2787193596798399,0.1854127063531766,-9.812790255127563,0.09,0.010010005002501252,-1.1300300150075036,0,0,0,45.5
2065870,-0.19871935967983992,0.30541270635317663,-9.802790255127563,0.11,1.0005002501250626e-05,-0.9200300150075038,0,0,0,45.31
2065880,-0.09871935967983991,0.3854127063531766,-9.792790255127564,0.12,-0.009989994997498749,-0.24003001500750373,0,0,0,45.5
2065890,-0.06871935967983991,0.2654127063531766,-9.812790255127563,0.1,-0.02998999499749875,0.3599699849924962,0,0,0,45.31
2065900,0.03128064032016008,0.0854127063531766,-9.812790255127563,0.05,-0.01998999499749875,0.5699699849924962,0,0,0,45.5
2065910,0.20128064032016008,-0.0645872936468234,-9.822790255127563,0.01,-0.01998999499749875,0.8899699849924962,0,0,0,45.37
2065920,0.22128064032016007,-0.07458729364682341,-9.822790255127563,-0.01,-0.01998999499749875,1.4599699849924963,0,0,0,45.43
2065930,0.22128064032016007,-0.05458729364682341,-9.812790255127563,-0.04,1.0005002501250626e-05,1.8499699849924964,0,0,0,45.31
2065940,0.24128064032016008,-0.0645872936468234,-9.812790255127563,-0.05,-0.009989994997498749,1.9299699849924963,0,0,0,45.5
2065952,0.22128064032016007,0.0054127063531765884,-9.822790255127563,-0.04,-0.01998999499749875,2.1999699849924963,0,0,0,45.31
2065960,0.19128064032016007,0.015412706353176597,-9.812790255127563,-0.06,1.0005002501250626e-05,2.3899699849924962,0,0,0,45.43
2065970,0.24128064032016008,-0.0945872936468234,-9.802790255127563,-0.1,0.02001000500250125,2.2399699849924963,0,0,0,45.37
2065980,0.20128064032016008,-0.19458729364682342,-9.812790255127563,-0.11,0.02001000500250125,1.9199699849924963,0,0,0,45.06
2065990,0.06128064032016008,-0.19458729364682342,-9.822790255127563,-0.09,1.0005002501250626e-05,1.4799699849924963,0,0,0,45.0
2066000,-0.00871935967983992,-0.1745872936468234,-9.812790255127563,-0.05,-0.02998999499749875,0.7899699849924963,0,0,0,45.37
2066010,-0.07871935967983992,-0.2345872936468234,-9.822790255127563,-0.04,-0.03998999499749875,0.18996998499249626,0,0,0,45.5
2066020,-0.24871935967983994,-0.19458729364682342,-9.812790255127563,-0.01,-0.01998999499749875,-0.10003001500750376,0,0,0,45.31
2066030,-0.21871935967983994,0.06541270635317659,-9.812790255127563,0.01,0.03001000500250125,-0.14003001500750376,0,0,0,45.37
2066040,-0.08871935967983993,0.3754127063531766,-9.812790255127563,0.04,0.08001000500250126,-0.010030015007503753,0,0,0,45.56
2066050,0.11128064032016008,0.5054127063531766,-9.812790255127563,0.05,0.10001000500250126,0.39996998499249625,0,0,0,45.68
2066060,0.24128064032016008,0.4054127063531766,-9.812790255127563,0.05,0.08001000500250126,0.8999699849924963,0,0,0,45.37
2066070,0.37128064032016006,0.2354127063531766,-9.812790255127563,0.05,0.03001000500250125,1.1699699849924963,0,0,0,45.37
2066080,0.42128064032016005,0.0854127063531766,-9.812790255127563,0.07,1.0005002501250626e-05,1.4199699849924963,0,0,0,45.37
2066090,0.4612806403201601,-0.07458729364682341,-9.822790255127563,0.09,-0.04998999499749875,1.4799699849924963,0,0,0,45.31
2066100,0.49128064032016006,-0.1745872936468234,-9.822790255127563,0.07,-0.06998999499749875,1.0399699849924964,0,0,0,45.31
2066112,0.4012806403201601,-0.3045872936468234,-9.822790255127563,0.0,-0.01998999499749875,0.13996998499249627,0,0,0,45.5
2066120,0.2912806403201601,-0.3145872936468234,-9.822790255127563,-0.04,1.0005002501250626e-05,-0.6400300150075038,0,0,0,45.37
2066130,0.21128064032016008,-0.2045872936468234,-9.822790255127563,-0.04,0.010010005002501252,-1.5900300150075037,0,0,0,45.56
2066140,0.24128064032016008,-0.07458729364682341,-9.822790255127563,-0.01,0.02001000500250125,-2.000030015007504,0,0,0,45.12
2066150,0.2812806403201601,-0.014587293646823402,-9.812790255127563,0.0,0.03001000500250125,-1.8600300150075038,0,0,0,45.31
2066160,0.18128064032016009,0.1054127063531766,-9.812790255127563,0.04,0.03001000500250125,-1.2000300150075036,0,0,0,45.31
2066170,-0.03871935967983992,0.31541270635317664,-9.812790255127563,0.05,0.010010005002501252,-0.41003001500750375,0,0,0,45.37
2066180,-0.16871935967983992,0.4754127063531767,-9.822790255127563,0.05,1.0005002501250626e-05,0.09996998499249625,0,0,0,45.5
2066190,-0.10871935967983992,0.46541270635317666,-9.822790255127563,0.01,0.010010005002501252,0.6399699849924962,0,0,0,45.5
2066200,0.021280640320160082,0.2454127063531766,-9.812790255127563,-0.05,0.010010005002501252,1.2199699849924963,0,0,0,45.5
2066210,0.10128064032016007,0.025412706353176592,-9.812790255127563,-0.1,0.010010005002501252,1.5799699849924964,0,0,0,45.25
2066220,0.21128064032016008,-0.08458729364682341,-9.812790255127563,-0.11,0.010010005002501252,1.7899699849924964,0,0,0,45.31
2066230,0.31128064032016006,-0.1845872936468234,-9.812790255127563,-0.1,1.0005002501250626e-05,1.9599699849924963,0,0,0,45.31
2066240,0.38128064032016007,-0.28458729364682345,-9.822790255127563,-0.09,-0.01998999499749875,1.9299699849924963,0,0,0,45.37
2066250,0.42128064032016005,-0.28458729364682345,-9.822790255127563,-0.07,-0.01998999499749875,1.7499699849924963,0,0,0,45.5
2066260,0.4512806403201601,-0.19458729364682342,-9.812790255127563,-0.04,-0.01998999499749875,1.5899699849924964,0,0,0,45.56
2066270,0.4512806403201601,-0.0945872936468234,-9.812790255127563,0.0,-0.01998999499749875,1.5499699849924964,0,0,0,45.5
2066280,0.4712806403201601,-0.05458729364682341,-9.812790255127563,0.03,-0.02998999499749875,1.6699699849924963,0,0,0,45.37
2066290,0.36128064032016005,-0.02458729364682341,-9.812790255127563,0.04,-0.03998999499749875,1.7399699849924963,0,0,0,45.56
2066300,0.2612806403201601,0.0054127063531765884,-9.822790255127563,0.03,-0.03998999499749875,1.3899699849924962,0,0,0,45.37
2066310,0.2612806403201601,0.0054127063531765884,-9.812790255127563,0.02,-0.04998999499749875,0.8199699849924962,0,0,0,45.43
2066320,0.36128064032016005,-0.08458729364682341,-9.812790255127563,-0.01,-0.03998999499749875,0.24996998499249626,0,0,0,45.25
2066330,0.48128064032016005,-0.22458729364682342,-9.822790255127563,-0.03,-0.02998999499749875,-0.12003001500750375,0,0,0,45.31
2066340,0.5512806403201601,-0.32458729364682337,-9.822790255127563,-0.04,1.0005002501250626e-05,-0.19003001500750374,0,0,0,45.5
2066352,0.4612806403201601,-0.3845872936468234,-9.802790255127563,-0.05,0.02001000500250125,-0.06003001500750375,0,0,0,45.43
2066360,0.36128064032016005,-0.27458729364682344,-9.812790255127563,-0.02,0.04001000500250125,0.27996998499249626,0,0,0,45.25
2066370,0.12128064032016009,-0.014587293646823402,-9.822790255127563,0.06,0.04001000500250125,1.0299699849924964,0,0,0,45.31
2066380,0.13128064032016007,0.2354127063531766,-9.822790255127563,0.13,0.04001000500250125,1.5399699849924964,0,0,0,45.56
2066390,0.49128064032016006,0.3954127063531766,-9.822790255127563,0.19,0.03001000500250125,1.6799699849924963,0,0,0,45.31
2066400,0.8912806403201601,0.2954127063531766,-9.812790255127563,0.2,0.02001000500250125,1.6799699849924963,0,0,0,45.31
2066410,1.0412806403201602,0.0754127063531766,-9.812790255127563,0.17,0.010010005002501252,1.4699699849924963,0,0,0,45.25
2066420,0.86128064032016,-0.10458729364682341,-9.812790255127563,0.11,1.0005002501250626e-05,1.0499699849924964,0,0,0,45.31
2066430,0.5412806403201601,-0.15458729364682341,-9.812790255127563,0.03,1.0005002501250626e-05,0.44996998499249624,0,0,0,45.31
2066440,0.13128064032016007,-0.0945872936468234,-9.812790255127563,0.0,1.0005002501250626e-05,-0.16003001500750375,0,0,0,45.5
2066450,-0.08871935967983993,-0.05458729364682341,-9.812790255127563,0.0,0.02001000500250125,-0.7000300150075037,0,0,0,45.31
2066460,-0.21871935967983994,-0.02458729364682341,-9.812790255127563,-0.01,0.02001000500250125,-1.1000300150075037,0,0,0,45.5
2066470,-0.3487193596798399,0.025412706353176592,-9.812790255127563,0.01,0.02001000500250125,-1.3800300150075036,0,0,0,45.43
2066480,-0.17871935967983993,0.0754127063531766,-9.812790255127563,0.07,0.03001000500250125,-1.6600300150075036,0,0,0,45.43
2066490,0.14128064032016008,0.0754127063531766,-9.812790255127563,0.12,0.03001000500250125,-1.7100300150075036,0,0,0,45.5
2066502,0.30128064032016005,0.045412706353176596,-9.812790255127563,0.15,0.010010005002501252,-1.4200300150075036,0,0,0,45.37
2066510,0.1512806403201601,0.055412706353176605,-9.812790255127563,0.15,1.0005002501250626e-05,-1.1800300150075036,0,0,0,45.56
2066520,-0.12871935967983994,0.025412706353176592,-9.812790255127563,0.08,1.0005002501250626e-05,-1.0800300150075037,0,0,0,45.31
2066530,-0.3387193596798399,0.015412706353176597,-9.812790255127563,-0.02,-0.009989994997498749,-1.1600300150075036,0,0,0,45.5
2066540,-0.4087193596798399,-0.004587293646823407,-9.822790255127563,-0.09,-0.009989994997498749,-1.2400300150075036,0,0,0,45.68
2066552,-0.12871935967983994,-0.08458729364682341,-9.812790255127563,-0.13,-0.009989994997498749,-1.2300300150075036,0,0,0,45.31
2066560,0.20128064032016008,-0.1445872936468234,-9.822790255127563,-0.14,-0.009989994997498749,-1.1000300150075037,0,0,0,45.5
2066570,0.5312806403201601,-0.1845872936468234,-9.822790255127563,-0.13,-0.009989994997498749,-0.7700300150075038,0,0,0,45.5
2066580,0.8112806403201601,-0.13458729364682342,-9.822790255127563,-0.09,-0.009989994997498749,-0.43003001500750376,0,0,0,45.25
2066590,1.1112806403201603,-0.10458729364682341,-9.822790255127563,-0.04,-0.009989994997498749,-0.16003001500750375,0,0,0,45.43
2066600,0.60128064032016,-0.07458729364682341,-9.812790255127563,-0.03,-0.05998999499749875,-0.03003001500750375,0,0,0,45.43
2066612,0.06128064032016008,-0.014587293646823402,-9.822790255127563,-0.02,-0.05998999499749875,0.009969984992496248,0,0,0,45.12
2066620,-0.04871935967983992,-0.014587293646823402,-9.812790255127563,-0.01,-0.04998999499749875,-3.0015007503751875e-05,0,0,0,45.12
2066630,-0.04871935967983992,-0.04458729364682341,-9.812790255127563,-0.08,-0.03998999499749875,-3.0015007503751875e-05,0,0,0,45.5
2066640,-0.04871935967983992,-0.07458729364682341,-9.812790255127563,-0.26,-0.02998999499749875,-3.0015007503751875e-05,0,0,0,45.43
2066650,-0.01871935967983992,-0.014587293646823402,-9.822790255127563,-0.42,0.02001000500250125,-3.0015007503751875e-05,0,0,0,45.25
2066660,-0.00871935967983992,0.0054127063531765884,-9.802790255127563,-0.4,0.03001000500250125,-3.0015007503751875e-05,0,0,0,45.31
2066670,-0.06871935967983991,0.045412706353176596,-9.792790255127564,-0.39,0.02001000500250125,0.029969984992496247,0,0,0,45.5
2066680,-0.4687193596798399,-0.08458729364682341,-9.792790255127564,-0.17,-0.03998999499749875,-0.04003001500750375,0,0,0,45.5
2066690,-0.2987193596798399,-0.004587293646823407,-9.812790255127563,-0.04,-0.02998999499749875,-0.23003001500750375,0,0,0,45.43
2066700,-0.07871935967983992,0.06541270635317659,-9.822790255127563,-0.01,1.0005002501250626e-05,-0.4600300150075038,0,0,0,45.31
2066710,-0.26871935967983995,0.025412706353176592,-9.822790255127563,-0.06,0.05001000500250125,-0.7200300150075037,0,0,0,45.31
2066720,-0.5087193596798399,-0.39458729364682343,-9.822790255127563,-0.4,0.17001000500250127,-1.2300300150075036,0,0,0,45.43
2066730,-0.88871935967984,-0.19458729364682342,-9.812790255127563,-0.34,0.3400100050025013,-1.7300300150075036,0,0,0,45.31
2066740,-0.9687193596798399,0.30541270635317663,-9.792790255127564,-0.12,0.48001000500250124,-0.6600300150075038,0,0,0,45.37
2066750,0.36128064032016005,0.48541270635317657,-9.692790255127562,0.05,0.06001000500250125,1.8699699849924964,0,0,0,45.37
2066760,1.9812806403201602,0.1154127063531766,-9.782790255127564,0.16,-0.43998999499749875,3.7399699849924963,0,0,0,45.5
2066770,1.2912806403201602,0.025412706353176592,-9.822790255127563,0.16,-0.5199899949974988,2.359969984992496,0,0,0,45.5
2066780,0.25128064032016006,-0.034587293646823405,-9.812790255127563,0.03,-0.16998999499749876,0.6099699849924962,0,0,0,45.25
2066790,-0.09871935967983991,-0.02458729364682341,-9.812790255127563,0.0,-0.009989994997498749,-0.09003001500750375,0,0,0,45.5
2066802,-0.06871935967983991,0.0054127063531765884,-9.802790255127563,0.0,0.010010005002501252,-0.12003001500750375,0,0,0,45.5
2066810,-0.00871935967983992,0.0054127063531765884,-9.802790255127563,0.0,1.0005002501250626e-05,-0.05003001500750375,0,0,0,45.31
2066820,0.0012806403201600803,0.0054127063531765884,-9.812790255127563,0.0,1.0005002501250626e-05,-3.0015007503751875e-05,0,0,0,45.5
2066830,0.0012806403201600803,0.0054127063531765884,-9.812790255127563,0.0,1.0005002501250626e-05,0.009969984992496248,0,0,0,45.5
2066840,0.0012806403201600803,0.0054127063531765884,-9.812790255127563,0.0,1.0005002501250626e-05,-3.0015007503751875e-05,0,0,0,45.37
2066850,-0.00871935967983992,0.0054127063531765884,-9.812790255127563,0.0,1.0005002501250626e-05,-3.0015007503751875e-05,0,0,0,45.25
2066862,-0.00871935967983992,0.0054127063531765884,-9.792790255127564,0.0,1.0005002501250626e-05,-3.0015007503751875e-05,0,0,0,45.37
2066870,-0.00871935967983992,0.0054127063531765884,-9.802790255127563,0.0,1.0005002501250626e-05,-3.0015007503751875e-05,0,0,0,45.37
2066880,-0.00871935967983992,0.015412706353176597,-9.802790255127563,0.0,1.0005002501250626e-05,-3.0015007503751875e-05,0,0,0,45.56
2066890,-0.00871935967983992,0.015412706353176597,-9.812790255127563,0.0,1.0005002501250626e-05,-3.0015007503751875e-05,0,0,0,45.5
2066900,-0.00871935967983992,0.015412706353176597,-9.822790255127563,0.0,1.0005002501250626e-05,-3.0015007503751875e-05,0,0,0,45.43
2066910,-0.00871935967983992,0.0054127063531765884,-9.812790255127563,0.0,1.0005002501250626e-05,-3.0015007503751875e-05,0,0,0,45.37
2066920,0.0012806403201600803,0.0054127063531765884,-9.812790255127563,0.0,1.0005002501250626e-05,-3.0015007503751875e-05,0,0,0,45.25
2066930,-0.00871935967983992,0.015412706353176597,-9.822790255127563,0.0,1.0005002501250626e-05,-3.0015007503751875e-05,0,0,0,45.62
2066940,0.0012806403201600803,0.015412706353176597,-9.812790255127563,0.0,1.0005002501250626e-05,-3.0015007503751875e-05,0,0,0,45.5
2066950,-0.00871935967983992,0.015412706353176597,-9.802790255127563,0.0,1.0005002501250626e-05,-3.0015007503751875e-05,0,0,0,45.37
2066960,-0.00871935967983992,0.015412706353176597,-9.802790255127563,0.0,1.0005002501250626e-05,-3.0015007503751875e-05,0,0,0,45.5
2066970,-0.00871935967983992,0.015412706353176597,-9.812790255127563,0.0,1.0005002501250626e-05,-3.0015007503751875e-05,0,0,0,45.5
2066980,-0.00871935967983992,0.015412706353176597,-9.812790255127563,0.0,1.0005002501250626e-05,-3.0015007503751875e-05,0,0,0,45.31
2066990,-0.00871935967983992,0.0054127063531765884,-9.812790255127563,0.0,1.0005002501250626e-05,-3.0015007503751875e-05,0,0,0,45.43
2067000,0.0012806403201600803,0.0054127063531765884,-9.812790255127563,0.0,1.0005002501250626e-05,-3.0015007503751875e-05,0,0,0,45.56
2067010,0.0012806403201600803,0.0054127063531765884,-9.812790255127563,0.0,1.0005002501250626e-05,-3.0015007503751875e-05,0,0,0,45.31
2067020,0.0012806403201600803,0.015412706353176597,-9.812790255127563,0.0,1.0005002501250626e-05,-3.0015007503751875e-05,0,0,0,45.25
2067030,0.0012806403201600803,0.015412706353176597,-9.812790255127563,0.0,1.0005002501250626e-05,-3.0015007503751875e-05,0,0,0,45.5
2067040,0.0012806403201600803,0.0054127063531765884,-9.812790255127563,0.0,1.0005002501250626e-05,-3.0015007503751875e-05,0,0,0,45.5
2067050,0.0012806403201600803,-0.004587293646823407,-9.812790255127563,0.0,1.0005002501250626e-05,-3.0015007503751875e-05,0,0,0,45.5
2067060,0.0012806403201600803,-0.004587293646823407,-9.812790255127563,0.0,1.0005002501250626e-05,-3.0015007503751875e-05,0,0,0,45.37
2067070,-0.00871935967983992,0.0054127063531765884,-9.812790255127563,0.0,1.0005002501250626e-05,-3.0015007503751875e-05,0,0,0,45.43
2067080,-0.00871935967983992,0.0054127063531765884,-9.822790255127563,0.0,1.0005002501250626e-05,-3.0015007503751875e-05,0,0,0,45.5
2067090,-0.00871935967983992,0.0054127063531765884,-9.812790255127563,0.0,1.0005002501250626e-05,-3.0015007503751875e-05,0,0,0,45.5
2067100,-0.00871935967983992,0.0054127063531765884,-9.812790255127563,0.0,1.0005002501250626e-05,-3.0015007503751875e-05,0,0,0,45.31
2067110,0.0012806403201600803,0.0054127063531765884,-9.812790255127563,0.0,1.0005002501250626e-05,-3.0015007503751875e-05,0,0,0,45.31
2067120,0.0012806403201600803,0.0054127063531765884,-9.812790255127563,0.0,1.0005002501250626e-05,0.009969984992496248,0,0,0,45.31
2067130,0.0012806403201600803,0.0054127063531765884,-9.812790255127563,0.0,1.0005002501250626e-05,-3.0015007503751875e-05,0,0,0,45.5
2067140,0.0012806403201600803,0.0054127063531765884,-9.822790255127563,0.0,1.0005002501250626e-05,-3.0015007503751875e-05,0,0,0,45.06
2067150,-0.00871935967983992,0.0054127063531765884,-9.822790255127563,0.0,1.0005002501250626e-05,-3.0015007503751875e-05,0,0,0,45.5
2067160,-0.00871935967983992,0.015412706353176597,-9.822790255127563,0.0,1.0005002501250626e-05,-3.0015007503751875e-05,0,0,0,45.43
2067170,0.0012806403201600803,0.015412706353176597,-9.812790255127563,0.0,1.0005002501250626e-05,-3.0015007503751875e-05,0,0,0,45.31
2067180,0.0012806403201600803,0.0054127063531765884,-9.812790255127563,0.0,1.0005002501250626e-05,-3.0015007503751875e-05,0,0,0,45.31
2067190,0.0012806403201600803,0.0054127063531765884,-9.812790255127563,0.0,1.0005002501250626e-05,-3.0015007503751875e-05,0,0,0,45.37
2067200,0.0012806403201600803,0.0054127063531765884,-9.812790255127563,0.0,1.0005002501250626e-05,-3.0015007503751875e-05,0,0,0,45.37
2067210,0.0012806403201600803,0.0054127063531765884,-9.812790255127563,0.0,1.0005002501250626e-05,-3.0015007503751875e-05,0,0,0,45.31
2067220,0.0012806403201600803,0.0054127063531765884,-9.822790255127563,0.0,1.0005002501250626e-05,-3.0015007503751875e-05,0,0,0,45.56
2067230,0.0012806403201600803,0.015412706353176597,-9.812790255127563,0.0,1.0005002501250626e-05,-3.0015007503751875e-05,0,0,0,45.5
2067240,-0.00871935967983992,0.0054127063531765884,-9.812790255127563,0.0,1.0005002501250626e-05,-3.0015007503751875e-05,0,0,0,45.5
2067250,-0.00871935967983992,0.0054127063531765884,-9.812790255127563,0.0,1.0005002501250626e-05,-3.0015007503751875e-05,0,0,0,45.37
2067260,0.0012806403201600803,0.015412706353176597,-9.812790255127563,0.0,1.0005002501250626e-05,-3.0015007503751875e-05,0,0,0,45.43
2067270,0.0012806403201600803,0.015412706353176597,-9.812790255127563,0.0,1.0005002501250626e-05,-3.0015007503751875e-05,0,0,0,45.5
2067280,0.0012806403201600803,0.0054127063531765884,-9.812790255127563,0.0,1.0005002501250626e-05,-3.0015007503751875e-05,0,0,0,45.43
2067290,0.0012806403201600803,0.0054127063531765884,-9.812790255127563,0.0,1.0005002501250626e-05,-3.0015007503751875e-05,0,0,0,45.5
2067300,0.0012806403201600803,0.0054127063531765884,-9.822790255127563,0.0,1.0005002501250626e-05,-3.0015007503751875e-05,0,0,0,45.43
2067310,0.0012806403201600803,0.015412706353176597,-9.822790255127563,0.0,1.0005002501250626e-05,-3.0015007503751875e-05,0,0,0,45.5
2067320,0.0012806403201600803,0.0054127063531765884,-9.812790255127563,0.0,1.0005002501250626e-05,-3.0015007503751875e-05,0,0,0,45.37
2067330,0.01128064032016008,0.0054127063531765884,-9.802790255127563,0.0,1.0005002501250626e-05,-3.0015007503751875e-05,0,0,0,45.31
2067340,0.01128064032016008,0.0054127063531765884,-9.802790255127563,0.0,1.0005002501250626e-05,-3.0015007503751875e-05,0,0,0,45.43
2067350,0.01128064032016008,0.0054127063531765884,-9.812790255127563,0.0,1.0005002501250626e-05,-3.0015007503751875e-05,0,0,0,45.37
2067360,0.0012806403201600803,0.015412706353176597,-9.812790255127563,0.0,1.0005002501250626e-05,-3.0015007503751875e-05,0,0,0,45.5
2067370,0.0012806403201600803,0.015412706353176597,-9.802790255127563,0.0,1.0005002501250626e-05,-3.0015007503751875e-05,0,0,0,45.37
2067380,0.0012806403201600803,0.015412706353176597,-9.802790255127563,0.0,1.0005002501250626e-05,-3.0015007503751875e-05,0,0,0,45.43
2067390,0.0012806403201600803,0.0054127063531765884,-9.812790255127563,0.0,1.0005002501250626e-05,-3.0015007503751875e-05,0,0,0,45.31
2067400,0.0012806403201600803,0.015412706353176597,-9.812790255127563,0.0,1.0005002501250626e-05,-3.0015007503751875e-05,0,0,0,45.5
2067410,0.01128064032016008,0.015412706353176597,-9.812790255127563,0.0,1.0005002501250626e-05,-3.0015007503751875e-05,0,0,0,45.5
2067420,0.0012806403201600803,0.015412706353176597,-9.802790255127563,0.0,1.0005002501250626e-05,-3.0015007503751875e-05,0,0,0,45.25
2067430,-0.00871935967983992,0.0054127063531765884,-9.802790255127563,0.0,1.0005002501250626e-05,-3.0015007503751875e-05,0,0,0,45.5
2067440,-0.00871935967983992,0.0054127063531765884,-9.802790255127563,0.0,1.0005002501250626e-05,-3.0015007503751875e-05,0,0,0,45.43
2067450,-0.00871935967983992,0.0054127063531765884,-9.812790255127563,0.0,1.0005002501250626e-05,-3.0015007503751875e-05,0,0,0,45.5
2067460,0.0012806403201600803,0.015412706353176597,-9.812790255127563,0.0,1.0005002501250626e-05,-3.0015007503751875e-05,0,0,0,45.31
2067470,0.0012806403201600803,0.025412706353176592,-9.812790255127563,0.0,1.0005002501250626e-05,-3.0015007503751875e-05,0,0,0,45.31
2067480,0.0012806403201600803,0.025412706353176592,-9.812790255127563,0.0,1.0005002501250626e-05,-3.0015007503751875e-05,0,0,0,45.31
2067490,0.0012806403201600803,0.015412706353176597,-9.812790255127563,0.0,1.0005002501250626e-05,-3.0015007503751875e-05,0,0,0,45.25
2067500,0.0012806403201600803,0.015412706353176597,-9.822790255127563,0.0,1.0005002501250626e-05,-3.0015007503751875e-05,0,0,0,45.56
2067510,0.0012806403201600803,0.0054127063531765884,-9.802790255127563,0.0,1.0005002501250626e-05,-3.0015007503751875e-05,0,0,0,45.5
2067520,0.0012806403201600803,0.0054127063531765884,-9.792790255127564,0.0,1.0005002501250626e-05,-3.0015007503751875e-05,0,0,0,45.31
2067530,0.0012806403201600803,0.0054127063531765884,-9.812790255127563,0.0,1.0005002501250626e-05,-3.0015007503751875e-05,0,0,0,45.31
2067540,0.0012806403201600803,0.0054127063531765884,-9.812790255127563,0.0,1.0005002501250626e-05,-3.0015007503751875e-05,0,0,0,45.25
2067550,0.0012806403201600803,0.0054127063531765884,-9.802790255127563,0.0,1.0005002501250626e-05,-3.0015007503751875e-05,0,0,0,45.25
2067560,0.01128064032016008,-0.004587293646823407,-9.802790255127563,0.0,1.0005002501250626e-05,-3.0015007503751875e-05,0,0,0,45.37
2067570,0.01128064032016008,0.0054127063531765884,-9.802790255127563,0.0,1.0005002501250626e-05,-3.0015007503751875e-05,0,0,0,45.43
2067580,0.0012806403201600803,0.0054127063531765884,-9.812790255127563,0.0,1.0005002501250626e-05,-3.0015007503751875e-05,0,0,0,45.37
2067590,0.0012806403201600803,0.0054127063531765884,-9.812790255127563,0.0,1.0005002501250626e-05,-3.0015007503751875e-05,0,0,0,45.31
2067600,0.01128064032016008,0.0054127063531765884,-9.812790255127563,0.0,1.0005002501250626e-05,-3.0015007503751875e-05,0,0,0,45.31
2067610,0.01128064032016008,-0.004587293646823407,-9.812790255127563,0.0,1.0005002501250626e-05,-3.0015007503751875e-05,0,0,0,45.43
2067620,0.0012806403201600803,0.0054127063531765884,-9.802790255127563,0.0,1.0005002501250626e-05,-3.0015007503751875e-05,0,0,0,45.31
2067630,0.0012806403201600803,0.0054127063531765884,-9.812790255127563,0.0,1.0005002501250626e-05,-3.0015007503751875e-05,0,0,0,45.5
2067640,0.0012806403201600803,0.0054127063531765884,-9.812790255127563,0.0,1.0005002501250626e-05,-3.0015007503751875e-05,0,0,0,45.5
2067650,0.0012806403201600803,-0.004587293646823407,-9.812790255127563,0.0,1.0005002501250626e-05,-3.0015007503751875e-05,0,0,0,45.5
2067660,-0.00871935967983992,-0.004587293646823407,-9.812790255127563,0.0,1.0005002501250626e-05,-3.0015007503751875e-05,0,0,0,45.5
2067670,-0.00871935967983992,-0.004587293646823407,-9.812790255127563,0.0,1.0005002501250626e-05,-3.0015007503751875e-05,0,0,0,45.5
2067680,-0.00871935967983992,0.0054127063531765884,-9.812790255127563,0.0,1.0005002501250626e-05,-3.0015007503751875e-05,0,0,0,45.12
2067690,0.0012806403201600803,0.015412706353176597,-9.812790255127563,0.0,1.0005002501250626e-05,-3.0015007503751875e-05,0,0,0,45.31
2067700,0.0012806403201600803,-0.004587293646823407,-9.812790255127563,0.0,1.0005002501250626e-05,-3.0015007503751875e-05,0,0,0,45.5
2067710,0.0012806403201600803,-0.004587293646823407,-9.812790255127563,0.0,1.0005002501250626e-05,-3.0015007503751875e-05,0,0,0,45.37
2067720,0.0012806403201600803,0.0054127063531765884,-9.812790255127563,0.0,1.0005002501250626e-05,-3.0015007503751875e-05,0,0,0,45.31
2067730,0.0012806403201600803,0.0054127063531765884,-9.802790255127563,0.0,1.0005002501250626e-05,-3.0015007503751875e-05,0,0,0,45.31
2067740,0.0012806403201600803,0.0054127063531765884,-9.812790255127563,0.0,1.0005002501250626e-05,-3.0015007503751875e-05,0,0,0,45.31
2067750,0.0012806403201600803,0.0054127063531765884,-9.812790255127563,0.0,1.0005002501250626e-05,-3.0015007503751875e-05,0,0,0,45.25
2067762,0.0012806403201600803,0.0054127063531765884,-9.812790255127563,0.0,1.0005002501250626e-05,-3.0015007503751875e-05,0,0,0,45.37
2067770,0.0012806403201600803,0.0054127063531765884,-9.802790255127563,0.0,1.0005002501250626e-05,-3.0015007503751875e-05,0,0,0,45.37
2067780,0.0012806403201600803,0.0054127063531765884,-9.802790255127563,0.0,1.0005002501250626e-05,-3.0015007503751875e-05,0,0,0,45.5
2067790,0.0012806403201600803,0.0054127063531765884,-9.802790255127563,0.0,1.0005002501250626e-05,-3.0015007503751875e-05,0,0,0,45.25
2067800,0.0012806403201600803,0.0054127063531765884,-9.812790255127563,0.0,1.0005002501250626e-05,-3.0015007503751875e-05,0,0,0,45.56
2067810,0.0012806403201600803,0.0054127063531765884,-9.812790255127563,0.0,1.0005002501250626e-05,-3.0015007503751875e-05,0,0,0,45.5
2067820,0.0012806403201600803,0.0054127063531765884,-9.812790255127563,0.0,1.0005002501250626e-05,-3.0015007503751875e-05,0,0,0,45.5
2067830,0.0012806403201600803,0.015412706353176597,-9.812790255127563,0.0,1.0005002501250626e-05,-3.0015007503751875e-05,0,0,0,45.37
2067840,0.0012806403201600803,0.0054127063531765884,-9.822790255127563,0.0,1.0005002501250626e-05,-3.0015007503751875e-05,0,0,0,45.5
2067852,0.0012806403201600803,0.0054127063531765884,-9.822790255127563,0.0,1.0005002501250626e-05,-3.0015007503751875e-05,0,0,0,45.12
2067860,0.0012806403201600803,-0.004587293646823407,-9.822790255127563,0.0,1.0005002501250626e-05,-3.0015007503751875e-05,0,0,0,45.43
