Timestamp,Accelerometer_X,Accelerometer_Y,Accelerometer_Z,Gyroscope_X,Gyroscope_Y,Gyroscope_Z,Magnetometer_X,Magnetometer_Y,Magnetometer_Z,Abs_Pressure,Temperature
2058620,-0.0053026513256628355,0.0012356178089044448,-9.813615667833918,7.003501750875438e-05,-7.003501750875438e-05,0.0,0,0,0,43.87
2058625,-0.0053026513256628355,0.011235617808904447,-9.823615667833918,7.003501750875438e-05,-7.003501750875438e-05,0.0,0,0,0,43.75
2058630,-0.0053026513256628355,0.0012356178089044448,-9.823615667833918,7.003501750875438e-05,-7.003501750875438e-05,0.0,0,0,0,43.87
2058637,-0.0053026513256628355,0.0012356178089044448,-9.813615667833918,7.003501750875438e-05,-7.003501750875438e-05,0.0,0,0,0,44.0
2058640,-0.0053026513256628355,-0.008764382191095554,-9.813615667833918,7.003501750875438e-05,-7.003501750875438e-05,0.0,0,0,0,43.81
2058645,-0.0053026513256628355,-0.008764382191095554,-9.813615667833918,7.003501750875438e-05,-7.003501750875438e-05,0.0,0,0,0,43.93
2058650,-0.0053026513256628355,-0.008764382191095554,-9.813615667833918,7.003501750875438e-05,-7.003501750875438e-05,0.0,0,0,0,44.0
2058655,-0.0053026513256628355,0.0012356178089044448,-9.813615667833918,7.003501750875438e-05,-7.003501750875438e-05,0.0,0,0,0,43.68
2058660,-0.0053026513256628355,0.0012356178089044448,-9.813615667833918,7.003501750875438e-05,-7.003501750875438e-05,0.0,0,0,0,43.87
2058665,-0.0053026513256628355,0.0012356178089044448,-9.813615667833918,7.003501750875438e-05,-7.003501750875438e-05,0.0,0,0,0,43.75
2058680,-0.0053026513256628355,0.0012356178089044448,-9.813615667833918,7.003501750875438e-05,-7.003501750875438e-05,0.0,0,0,0,43.87
2058700,-0.0053026513256628355,-0.008764382191095554,-9.813615667833918,7.003501750875438e-05,-7.003501750875438e-05,0.0,0,0,0,43.81
2058710,-0.0053026513256628355,-0.008764382191095554,-9.813615667833918,7.003501750875438e-05,-7.003501750875438e-05,0.0,0,0,0,43.87
2058720,-0.0053026513256628355,0.0012356178089044448,-9.803615667833919,7.003501750875438e-05,-7.003501750875438e-05,0.0,0,0,0,43.87
2058730,0.0046973486743371595,0.0012356178089044448,-9.813615667833918,7.003501750875438e-05,-7.003501750875438e-05,0.0,0,0,0,43.81
2058740,0.0046973486743371595,0.011235617808904447,-9.813615667833918,7.003501750875438e-05,-7.003501750875438e-05,0.0,0,0,0,43.75
2058752,0.0046973486743371595,-0.008764382191095554,-9.813615667833918,7.003501750875438e-05,-7.003501750875438e-05,0.0,0,0,0,43.75
2058760,0.0046973486743371595,0.0012356178089044448,-9.803615667833919,7.003501750875438e-05,-7.003501750875438e-05,0.0,0,0,0,43.62
2058770,-0.0053026513256628355,0.0012356178089044448,-9.813615667833918,7.003501750875438e-05,-7.003501750875438e-05,0.0,0,0,0,43.68
2058780,-0.0053026513256628355,-0.008764382191095554,-9.813615667833918,7.003501750875438e-05,-7.003501750875438e-05,0.0,0,0,0,43.75
2058790,-0.0053026513256628355,0.0012356178089044448,-9.813615667833918,7.003501750875438e-05,-7.003501750875438e-05,0.0,0,0,0,44.0
2058800,-0.0053026513256628355,0.0012356178089044448,-9.813615667833918,7.003501750875438e-05,-7.003501750875438e-05,0.0,0,0,0,43.62
2058810,0.0046973486743371595,0.0012356178089044448,-9.813615667833918,7.003501750875438e-05,-7.003501750875438e-05,0.0,0,0,0,43.75
2058820,0.0046973486743371595,0.0012356178089044448,-9.813615667833918,7.003501750875438e-05,-7.003501750875438e-05,0.0,0,0,0,43.87
2058830,0.0046973486743371595,0.0012356178089044448,-9.803615667833919,7.003501750875438e-05,-7.003501750875438e-05,0.0,0,0,0,43.87
2058840,-0.0053026513256628355,0.0012356178089044448,-9.813615667833918,7.003501750875438e-05,-7.003501750875438e-05,0.0,0,0,0,43.68
2058850,-0.0053026513256628355,0.0012356178089044448,-9.803615667833919,7.003501750875438e-05,-7.003501750875438e-05,0.0,0,0,0,43.68
2058860,0.0046973486743371595,0.0012356178089044448,-9.803615667833919,7.003501750875438e-05,-7.003501750875438e-05,0.0,0,0,0,43.56
2058870,0.0046973486743371595,-0.008764382191095554,-9.803615667833919,7.003501750875438e-05,-7.003501750875438e-05,0.0,0,0,0,43.87
2058880,0.0046973486743371595,0.0012356178089044448,-9.813615667833918,7.003501750875438e-05,-7.003501750875438e-05,0.0,0,0,0,43.93
2058890,-0.0053026513256628355,0.0012356178089044448,-9.813615667833918,7.003501750875438e-05,-7.003501750875438e-05,0.0,0,0,0,43.87
2058900,-0.0053026513256628355,0.0012356178089044448,-9.803615667833919,7.003501750875438e-05,-7.003501750875438e-05,0.0,0,0,0,43.75
2058910,0.0046973486743371595,0.0012356178089044448,-9.813615667833918,7.003501750875438e-05,-7.003501750875438e-05,0.0,0,0,0,43.81
2058920,0.0046973486743371595,0.011235617808904447,-9.813615667833918,7.003501750875438e-05,-7.003501750875438e-05,0.0,0,0,0,43.87
2058930,0.0046973486743371595,-0.008764382191095554,-9.813615667833918,7.003501750875438e-05,-7.003501750875438e-05,0.0,0,0,0,43.81
2058940,0.0046973486743371595,0.0012356178089044448,-9.823615667833918,7.003501750875438e-05,-7.003501750875438e-05,0.0,0,0,0,43.75
2058950,-0.0053026513256628355,0.0012356178089044448,-9.823615667833918,7.003501750875438e-05,-7.003501750875438e-05,0.0,0,0,0,43.62
2058960,0.0046973486743371595,0.0012356178089044448,-9.813615667833918,7.003501750875438e-05,-7.003501750875438e-05,0.0,0,0,0,43.75
2058970,0.0046973486743371595,0.0012356178089044448,-9.803615667833919,7.003501750875438e-05,-7.003501750875438e-05,0.0,0,0,0,43.93
2058980,-0.0053026513256628355,0.0012356178089044448,-9.803615667833919,7.003501750875438e-05,-7.003501750875438e-05,0.0,0,0,0,43.56
2058990,-0.0053026513256628355,0.0012356178089044448,-9.823615667833918,7.003501750875438e-05,-7.003501750875438e-05,0.0,0,0,0,43.68
2059000,-0.0053026513256628355,0.0012356178089044448,-9.823615667833918,7.003501750875438e-05,-7.003501750875438e-05,0.0,0,0,0,43.68
2059010,-0.0053026513256628355,0.0012356178089044448,-9.813615667833918,7.003501750875438e-05,-7.003501750875438e-05,0.0,0,0,0,43.81
2059020,-0.0053026513256628355,-0.008764382191095554,-9.813615667833918,7.003501750875438e-05,-7.003501750875438e-05,0.0,0,0,0,43.62
2059030,0.0046973486743371595,-0.008764382191095554,-9.813615667833918,7.003501750875438e-05,-7.003501750875438e-05,0.0,0,0,0,43.93
2059040,0.0046973486743371595,-0.008764382191095554,-9.813615667833918,7.003501750875438e-05,-7.003501750875438e-05,0.0,0,0,0,43.87
2059050,-0.0053026513256628355,-0.008764382191095554,-9.813615667833918,7.003501750875438e-05,-7.003501750875438e-05,0.0,0,0,0,43.62
2059060,-0.0053026513256628355,0.0012356178089044448,-9.813615667833918,7.003501750875438e-05,-7.003501750875438e-05,0.0,0,0,0,43.87
2059070,0.0046973486743371595,0.011235617808904447,-9.803615667833919,7.003501750875438e-05,-7.003501750875438e-05,0.01,0,0,0,43.81
2059080,0.0046973486743371595,0.011235617808904447,-9.803615667833919,7.003501750875438e-05,-7.003501750875438e-05,0.0,0,0,0,43.81
2059090,-0.0053026513256628355,0.0012356178089044448,-9.803615667833919,7.003501750875438e-05,-7.003501750875438e-05,0.0,0,0,0,43.93
2059100,-0.0053026513256628355,0.0012356178089044448,-9.813615667833918,7.003501750875438e-05,-7.003501750875438e-05,0.0,0,0,0,43.81
2059110,-0.0053026513256628355,0.0012356178089044448,-9.813615667833918,7.003501750875438e-05,-7.003501750875438e-05,0.0,0,0,0,43.87
2059120,0.0046973486743371595,-0.008764382191095554,-9.813615667833918,7.003501750875438e-05,-7.003501750875438e-05,0.0,0,0,0,43.75
2059130,0.0046973486743371595,-0.008764382191095554,-9.813615667833918,7.003501750875438e-05,-7.003501750875438e-05,0.0,0,0,0,43.81
2059140,-0.0053026513256628355,-0.008764382191095554,-9.813615667833918,7.003501750875438e-05,-7.003501750875438e-05,0.0,0,0,0,44.0
2059150,-0.0053026513256628355,-0.008764382191095554,-9.803615667833919,7.003501750875438e-05,-7.003501750875438e-05,0.0,0,0,0,43.81
2059160,0.0046973486743371595,0.0012356178089044448,-9.803615667833919,7.003501750875438e-05,-7.003501750875438e-05,0.0,0,0,0,43.75
2059170,0.0046973486743371595,0.0012356178089044448,-9.813615667833918,7.003501750875438e-05,-7.003501750875438e-05,0.0,0,0,0,43.75
2059180,-0.0053026513256628355,0.0012356178089044448,-9.823615667833918,7.003501750875438e-05,-7.003501750875438e-05,0.0,0,0,0,43.75
2059190,-0.0053026513256628355,-0.008764382191095554,-9.823615667833918,7.003501750875438e-05,-7.003501750875438e-05,0.0,0,0,0,43.93
2059200,0.0046973486743371595,-0.008764382191095554,-9.813615667833918,7.003501750875438e-05,-7.003501750875438e-05,0.0,0,0,0,43.81
2059210,0.0046973486743371595,-0.008764382191095554,-9.813615667833918,7.003501750875438e-05,-7.003501750875438e-05,0.0,0,0,0,43.87
2059220,-0.0053026513256628355,0.0012356178089044448,-9.813615667833918,7.003501750875438e-05,-7.003501750875438e-05,0.0,0,0,0,44.0
2059230,-0.0053026513256628355,0.0012356178089044448,-9.813615667833918,7.003501750875438e-05,-7.003501750875438e-05,0.0,0,0,0,43.75
2059240,-0.0053026513256628355,-0.008764382191095554,-9.813615667833918,7.003501750875438e-05,-7.003501750875438e-05,0.0,0,0,0,43.81
2059252,-0.0053026513256628355,-0.008764382191095554,-9.813615667833918,7.003501750875438e-05,-7.003501750875438e-05,0.0,0,0,0,43.81
2059262,-0.0053026513256628355,-0.008764382191095554,-9.813615667833918,7.003501750875438e-05,-7.003501750875438e-05,0.0,0,0,0,43.75
2059270,-0.0053026513256628355,-0.008764382191095554,-9.803615667833919,7.003501750875438e-05,-7.003501750875438e-05,0.0,0,0,0,43.75
2059280,-0.0053026513256628355,-0.008764382191095554,-9.813615667833918,7.003501750875438e-05,-7.003501750875438e-05,0.0,0,0,0,43.68
2059290,-0.0053026513256628355,-0.008764382191095554,-9.813615667833918,7.003501750875438e-05,-7.003501750875438e-05,0.0,0,0,0,43.62
2059300,-0.0053026513256628355,-0.008764382191095554,-9.823615667833918,7.003501750875438e-05,-7.003501750875438e-05,0.0,0,0,0,43.81
2059310,-0.0053026513256628355,0.0012356178089044448,-9.823615667833918,7.003501750875438e-05,-7.003501750875438e-05,0.0,0,0,0,43.87
2059320,-0.0053026513256628355,0.0012356178089044448,-9.813615667833918,7.003501750875438e-05,-7.003501750875438e-05,0.0,0,0,0,44.0
2059330,0.0046973486743371595,0.0012356178089044448,-9.813615667833918,7.003501750875438e-05,-7.003501750875438e-05,0.0,0,0,0,43.87
2059340,0.0046973486743371595,0.0012356178089044448,-9.823615667833918,-0.009929964982491246,-7.003501750875438e-05,0.0,0,0,0,43.81
2059350,0.0046973486743371595,0.0012356178089044448,-9.823615667833918,7.003501750875438e-05,-7.003501750875438e-05,0.0,0,0,0,43.68
2059360,0.0046973486743371595,0.0012356178089044448,-9.813615667833918,7.003501750875438e-05,-7.003501750875438e-05,0.0,0,0,0,43.87
2059370,0.0046973486743371595,0.0012356178089044448,-9.813615667833918,7.003501750875438e-05,-7.003501750875438e-05,0.0,0,0,0,43.87
2059380,-0.0053026513256628355,0.0012356178089044448,-9.823615667833918,7.003501750875438e-05,-7.003501750875438e-05,0.0,0,0,0,43.87
2059390,-0.0053026513256628355,0.0012356178089044448,-9.823615667833918,7.003501750875438e-05,-7.003501750875438e-05,0.0,0,0,0,43.93
2059402,0.0046973486743371595,0.0012356178089044448,-9.813615667833918,7.003501750875438e-05,-7.003501750875438e-05,0.0,0,0,0,43.75
2059410,0.0046973486743371595,0.0012356178089044448,-9.803615667833919,7.003501750875438e-05,-7.003501750875438e-05,0.0,0,0,0,43.93
2059420,-0.0053026513256628355,0.0012356178089044448,-9.803615667833919,7.003501750875438e-05,-7.003501750875438e-05,0.0,0,0,0,43.75
2059430,-0.0053026513256628355,0.0012356178089044448,-9.813615667833918,7.003501750875438e-05,-7.003501750875438e-05,0.0,0,0,0,44.06
2059440,-0.0053026513256628355,0.0012356178089044448,-9.823615667833918,7.003501750875438e-05,-7.003501750875438e-05,0.0,0,0,0,43.93
2059450,-0.0053026513256628355,0.0012356178089044448,-9.823615667833918,7.003501750875438e-05,-7.003501750875438e-05,0.0,0,0,0,43.93
2059460,-0.0053026513256628355,0.0012356178089044448,-9.813615667833918,7.003501750875438e-05,-7.003501750875438e-05,0.0,0,0,0,44.06
2059470,0.0046973486743371595,0.0012356178089044448,-9.803615667833919,7.003501750875438e-05,-7.003501750875438e-05,0.0,0,0,0,43.68
2059480,0.0046973486743371595,0.0012356178089044448,-9.803615667833919,7.003501750875438e-05,-7.003501750875438e-05,0.0,0,0,0,44.0
2059490,-0.0053026513256628355,-0.008764382191095554,-9.803615667833919,7.003501750875438e-05,-7.003501750875438e-05,0.0,0,0,0,43.87
2059500,-0.0053026513256628355,-0.008764382191095554,-9.813615667833918,7.003501750875438e-05,-7.003501750875438e-05,0.0,0,0,0,43.81
2059510,0.0046973486743371595,0.0012356178089044448,-9.823615667833918,7.003501750875438e-05,-7.003501750875438e-05,0.0,0,0,0,43.75
2059520,0.0046973486743371595,0.011235617808904447,-9.823615667833918,7.003501750875438e-05,0.009929964982491246,0.0,0,0,0,43.75
2059530,0.014697348674337155,0.0012356178089044448,-9.823615667833918,7.003501750875438e-05,-7.003501750875438e-05,0.0,0,0,0,43.81
2059540,0.0046973486743371595,0.0012356178089044448,-9.823615667833918,7.003501750875438e-05,-7.003501750875438e-05,0.0,0,0,0,43.75
2059550,-0.0053026513256628355,0.0012356178089044448,-9.813615667833918,7.003501750875438e-05,-7.003501750875438e-05,0.0,0,0,0,43.75
2059560,0.0046973486743371595,0.0012356178089044448,-9.813615667833918,7.003501750875438e-05,-7.003501750875438e-05,0.0,0,0,0,43.75
2059570,-0.0053026513256628355,0.0012356178089044448,-9.813615667833918,7.003501750875438e-05,-7.003501750875438e-05,0.0,0,0,0,43.87
2059580,-0.0053026513256628355,0.0012356178089044448,-9.813615667833918,7.003501750875438e-05,-7.003501750875438e-05,0.0,0,0,0,43.75
2059590,-0.0053026513256628355,0.0012356178089044448,-9.813615667833918,7.003501750875438e-05,-7.003501750875438e-05,0.0,0,0,0,43.87
2059600,0.0046973486743371595,0.0012356178089044448,-9.813615667833918,7.003501750875438e-05,-7.003501750875438e-05,0.0,0,0,0,43.81
2059610,0.0046973486743371595,0.0012356178089044448,-9.813615667833918,7.003501750875438e-05,-7.003501750875438e-05,0.0,0,0,0,44.0
2059620,0.0046973486743371595,0.0012356178089044448,-9.813615667833918,7.003501750875438e-05,-7.003501750875438e-05,0.0,0,0,0,43.75
2059630,0.0046973486743371595,-0.008764382191095554,-9.803615667833919,7.003501750875438e-05,-7.003501750875438e-05,0.0,0,0,0,43.87
2059640,0.0046973486743371595,-0.008764382191095554,-9.803615667833919,7.003501750875438e-05,-7.003501750875438e-05,0.0,0,0,0,44.12
2059650,0.0046973486743371595,0.0012356178089044448,-9.813615667833918,7.003501750875438e-05,-7.003501750875438e-05,0.0,0,0,0,43.68
2059660,0.0046973486743371595,0.011235617808904447,-9.813615667833918,7.003501750875438e-05,-7.003501750875438e-05,0.0,0,0,0,43.87
2059670,0.0046973486743371595,0.0012356178089044448,-9.813615667833918,7.003501750875438e-05,-7.003501750875438e-05,0.0,0,0,0,43.87
2059680,0.0046973486743371595,-0.008764382191095554,-9.813615667833918,7.003501750875438e-05,-7.003501750875438e-05,0.0,0,0,0,43.62
2059690,0.0046973486743371595,-0.008764382191095554,-9.803615667833919,7.003501750875438e-05,-7.003501750875438e-05,0.0,0,0,0,43.87
2059700,0.0046973486743371595,0.0012356178089044448,-9.813615667833918,7.003501750875438e-05,-7.003501750875438e-05,0.0,0,0,0,43.62
2059710,-0.0053026513256628355,0.0012356178089044448,-9.813615667833918,7.003501750875438e-05,-7.003501750875438e-05,0.0,0,0,0,43.87
2059720,-0.0053026513256628355,0.0012356178089044448,-9.813615667833918,7.003501750875438e-05,-7.003501750875438e-05,0.0,0,0,0,43.68
2059730,0.0046973486743371595,0.0012356178089044448,-9.813615667833918,7.003501750875438e-05,-7.003501750875438e-05,0.0,0,0,0,43.62
2059740,0.0046973486743371595,0.0012356178089044448,-9.803615667833919,7.003501750875438e-05,-7.003501750875438e-05,0.0,0,0,0,43.75
2059750,0.0046973486743371595,0.0012356178089044448,-9.803615667833919,7.003501750875438e-05,-7.003501750875438e-05,0.0,0,0,0,43.87
2059760,0.0046973486743371595,0.0012356178089044448,-9.803615667833919,7.003501750875438e-05,-7.003501750875438e-05,0.0,0,0,0,43.87
2059770,0.0046973486743371595,0.0012356178089044448,-9.813615667833918,7.003501750875438e-05,-7.003501750875438e-05,0.0,0,0,0,43.87
2059780,0.0046973486743371595,-0.008764382191095554,-9.813615667833918,7.003501750875438e-05,-7.003501750875438e-05,0.0,0,0,0,43.93
2059790,-0.0053026513256628355,0.0012356178089044448,-9.813615667833918,7.003501750875438e-05,-7.003501750875438e-05,0.0,0,0,0,43.62
2059800,-0.0053026513256628355,0.0012356178089044448,-9.813615667833918,7.003501750875438e-05,-7.003501750875438e-05,0.0,0,0,0,43.87
2059810,-0.0053026513256628355,0.0012356178089044448,-9.813615667833918,7.003501750875438e-05,-7.003501750875438e-05,0.0,0,0,0,43.68
2059820,0.0046973486743371595,0.0012356178089044448,-9.803615667833919,7.003501750875438e-05,-7.003501750875438e-05,0.0,0,0,0,43.87
2059830,0.0046973486743371595,0.0012356178089044448,-9.813615667833918,7.003501750875438e-05,-7.003501750875438e-05,0.0,0,0,0,43.81
2059840,0.0046973486743371595,0.0012356178089044448,-9.823615667833918,7.003501750875438e-05,-7.003501750875438e-05,0.0,0,0,0,43.75
2059852,0.0046973486743371595,0.0012356178089044448,-9.813615667833918,7.003501750875438e-05,-7.003501750875438e-05,0.0,0,0,0,43.75
2059860,0.0046973486743371595,-0.008764382191095554,-9.813615667833918,7.003501750875438e-05,-7.003501750875438e-05,0.0,0,0,0,43.87
2059870,0.0046973486743371595,-0.008764382191095554,-9.803615667833919,7.003501750875438e-05,-7.003501750875438e-05,0.0,0,0,0,43.68
2059880,-0.0053026513256628355,0.0012356178089044448,-9.813615667833918,7.003501750875438e-05,-7.003501750875438e-05,0.0,0,0,0,43.75
2059890,0.0046973486743371595,0.0012356178089044448,-9.813615667833918,7.003501750875438e-05,-7.003501750875438e-05,0.0,0,0,0,43.68
2059900,0.0046973486743371595,0.0012356178089044448,-9.803615667833919,7.003501750875438e-05,-7.003501750875438e-05,0.0,0,0,0,43.75
2059910,0.0046973486743371595,-0.008764382191095554,-9.803615667833919,7.003501750875438e-05,-7.003501750875438e-05,0.0,0,0,0,43.75
2059920,0.0046973486743371595,-0.008764382191095554,-9.803615667833919,7.003501750875438e-05,-7.003501750875438e-05,0.0,0,0,0,43.75
2059930,0.0046973486743371595,-0.008764382191095554,-9.803615667833919,7.003501750875438e-05,-7.003501750875438e-05,0.0,0,0,0,43.81
2059940,0.0046973486743371595,0.0012356178089044448,-9.803615667833919,7.003501750875438e-05,-7.003501750875438e-05,0.0,0,0,0,43.75
2059950,0.0046973486743371595,0.0012356178089044448,-9.813615667833918,7.003501750875438e-05,-7.003501750875438e-05,0.0,0,0,0,43.68
2059960,0.0046973486743371595,0.011235617808904447,-9.813615667833918,7.003501750875438e-05,-7.003501750875438e-05,0.0,0,0,0,43.75
2059970,-0.0053026513256628355,0.0012356178089044448,-9.813615667833918,7.003501750875438e-05,-7.003501750875438e-05,0.0,0,0,0,43.87
2059980,-0.0053026513256628355,-0.008764382191095554,-9.823615667833918,7.003501750875438e-05,-7.003501750875438e-05,0.0,0,0,0,43.93
2059990,-0.0053026513256628355,0.0012356178089044448,-9.813615667833918,7.003501750875438e-05,-7.003501750875438e-05,0.0,0,0,0,43.87
2060000,-0.0053026513256628355,0.011235617808904447,-9.813615667833918,7.003501750875438e-05,-7.003501750875438e-05,0.0,0,0,0,43.87
2060010,0.0046973486743371595,0.0012356178089044448,-9.813615667833918,7.003501750875438e-05,-7.003501750875438e-05,0.0,0,0,0,43.87
2060020,0.0046973486743371595,0.0012356178089044448,-9.813615667833918,7.003501750875438e-05,-7.003501750875438e-05,0.0,0,0,0,43.56
2060030,0.0046973486743371595,0.0012356178089044448,-9.813615667833918,7.003501750875438e-05,-7.003501750875438e-05,0.0,0,0,0,43.87
2060040,0.0046973486743371595,-0.008764382191095554,-9.813615667833918,7.003501750875438e-05,-7.003501750875438e-05,0.0,0,0,0,43.81
2060050,0.014697348674337155,0.0012356178089044448,-9.813615667833918,7.003501750875438e-05,-7.003501750875438e-05,0.0,0,0,0,43.87
2060060,0.0046973486743371595,0.0012356178089044448,-9.813615667833918,7.003501750875438e-05,-7.003501750875438e-05,0.0,0,0,0,43.81
2060070,0.0046973486743371595,0.0012356178089044448,-9.813615667833918,7.003501750875438e-05,-7.003501750875438e-05,0.0,0,0,0,43.75
2060080,-0.0053026513256628355,0.0012356178089044448,-9.813615667833918,7.003501750875438e-05,-7.003501750875438e-05,0.0,0,0,0,44.06
2060090,0.0046973486743371595,-0.008764382191095554,-9.823615667833918,7.003501750875438e-05,-7.003501750875438e-05,0.0,0,0,0,43.81
2060100,0.0046973486743371595,-0.008764382191095554,-9.813615667833918,7.003501750875438e-05,-7.003501750875438e-05,0.0,0,0,0,43.87
2060110,0.0046973486743371595,0.0012356178089044448,-9.803615667833919,7.003501750875438e-05,-7.003501750875438e-05,0.0,0,0,0,43.81
2060120,0.0046973486743371595,0.0012356178089044448,-9.803615667833919,7.003501750875438e-05,-7.003501750875438e-05,0.0,0,0,0,43.87
2060130,0.0046973486743371595,-0.008764382191095554,-9.813615667833918,7.003501750875438e-05,-7.003501750875438e-05,0.0,0,0,0,43.75
2060140,0.0046973486743371595,-0.008764382191095554,-9.823615667833918,7.003501750875438e-05,-7.003501750875438e-05,0.0,0,0,0,43.75
2060150,0.0046973486743371595,0.0012356178089044448,-9.823615667833918,7.003501750875438e-05,-7.003501750875438e-05,0.0,0,0,0,43.68
2060160,0.0046973486743371595,0.0012356178089044448,-9.813615667833918,7.003501750875438e-05,-7.003501750875438e-05,0.0,0,0,0,43.81
2060170,0.0046973486743371595,0.0012356178089044448,-9.813615667833918,7.003501750875438e-05,-7.003501750875438e-05,0.0,0,0,0,43.75
2060180,-0.0053026513256628355,0.0012356178089044448,-9.813615667833918,7.003501750875438e-05,-7.003501750875438e-05,0.0,0,0,0,43.81
2060190,-0.0053026513256628355,0.0012356178089044448,-9.813615667833918,7.003501750875438e-05,-7.003501750875438e-05,0.0,0,0,0,43.81
2060200,0.0046973486743371595,0.0012356178089044448,-9.813615667833918,7.003501750875438e-05,-7.003501750875438e-05,0.0,0,0,0,43.75
2060210,0.0046973486743371595,0.0012356178089044448,-9.803615667833919,7.003501750875438e-05,-7.003501750875438e-05,0.0,0,0,0,43.62
2060220,-0.0053026513256628355,0.0012356178089044448,-9.803615667833919,7.003501750875438e-05,-7.003501750875438e-05,0.0,0,0,0,43.5
2060230,-0.0053026513256628355,0.0012356178089044448,-9.803615667833919,7.003501750875438e-05,-7.003501750875438e-05,0.0,0,0,0,43.81
2060240,-0.0053026513256628355,0.0012356178089044448,-9.803615667833919,7.003501750875438e-05,-7.003501750875438e-05,0.0,0,0,0,43.75
2060250,0.0046973486743371595,0.0012356178089044448,-9.813615667833918,7.003501750875438e-05,-7.003501750875438e-05,0.0,0,0,0,43.87
2060260,0.0046973486743371595,0.0012356178089044448,-9.813615667833918,7.003501750875438e-05,-7.003501750875438e-05,0.0,0,0,0,43.75
2060270,0.0046973486743371595,-0.008764382191095554,-9.813615667833918,7.003501750875438e-05,-7.003501750875438e-05,0.0,0,0,0,43.75
2060280,0.0046973486743371595,0.0012356178089044448,-9.813615667833918,7.003501750875438e-05,-7.003501750875438e-05,0.0,0,0,0,43.87
2060290,-0.0053026513256628355,0.0012356178089044448,-9.813615667833918,7.003501750875438e-05,-7.003501750875438e-05,0.0,0,0,0,43.62
2060300,-0.0053026513256628355,0.0012356178089044448,-9.803615667833919,7.003501750875438e-05,-7.003501750875438e-05,0.0,0,0,0,43.81
2060312,0.0046973486743371595,0.0012356178089044448,-9.813615667833918,7.003501750875438e-05,-7.003501750875438e-05,0.0,0,0,0,43.87
2060320,0.0046973486743371595,0.0012356178089044448,-9.813615667833918,7.003501750875438e-05,-7.003501750875438e-05,0.0,0,0,0,43.81
2060330,0.0046973486743371595,-0.008764382191095554,-9.813615667833918,7.003501750875438e-05,-7.003501750875438e-05,0.0,0,0,0,43.87
2060340,-0.0053026513256628355,0.0012356178089044448,-9.823615667833918,7.003501750875438e-05,-7.003501750875438e-05,0.0,0,0,0,43.93
2060350,-0.0053026513256628355,0.0012356178089044448,-9.813615667833918,7.003501750875438e-05,-7.003501750875438e-05,0.0,0,0,0,43.87
2060360,0.0046973486743371595,0.0012356178089044448,-9.813615667833918,7.003501750875438e-05,-7.003501750875438e-05,0.0,0,0,0,43.87
2060370,0.0046973486743371595,0.0012356178089044448,-9.803615667833919,7.003501750875438e-05,-7.003501750875438e-05,0.0,0,0,0,44.06
2060380,-0.03530265132566284,-0.008764382191095554,-9.793615667833919,-0.05992996498249124,0.06992996498249125,0.0,0,0,0,43.81
2060390,0.05469734867433716,0.04123561780890445,-9.773615667833917,-0.009929964982491246,0.06992996498249125,0.0,0,0,0,43.81
2060402,-0.0053026513256628355,-0.008764382191095554,-9.813615667833918,0.15007003501750873,-0.09007003501750875,0.0,0,0,0,43.75
2060410,-0.015302651325662844,-0.008764382191095554,-9.823615667833918,0.13007003501750874,-0.07007003501750876,0.0,0,0,0,43.81
2060420,-0.015302651325662844,-0.008764382191095554,-9.813615667833918,0.06007003501750875,-0.010070035017508755,0.0,0,0,0,43.87
2060430,-0.0053026513256628355,-0.008764382191095554,-9.813615667833918,7.003501750875438e-05,0.019929964982491246,0.0,0,0,0,44.06
2060440,-0.0053026513256628355,-0.008764382191095554,-9.803615667833919,-0.039929964982491246,0.039929964982491246,0.0,0,0,0,44.0
2060450,-0.0053026513256628355,-0.018764382191095552,-9.813615667833918,-0.05992996498249124,0.05992996498249124,0.0,0,0,0,43.81
2060462,-0.0053026513256628355,-0.008764382191095554,-9.813615667833918,-0.08992996498249124,0.09992996498249125,0.0,0,0,0,44.0
2060470,-0.0053026513256628355,-0.008764382191095554,-9.813615667833918,-0.09992996498249125,0.11992996498249124,0.0,0,0,0,43.75
2060480,-0.0053026513256628355,0.0012356178089044448,-9.813615667833918,-0.12992996498249126,0.17992996498249125,0.0,0,0,0,43.75
2060490,0.024697348674337163,0.0012356178089044448,-9.803615667833919,-0.09992996498249125,0.17992996498249125,0.0,0,0,0,43.81
2060500,0.024697348674337163,0.011235617808904447,-9.803615667833919,-0.07992996498249125,0.11992996498249124,0.0,0,0,0,43.93
2060510,0.024697348674337163,0.0012356178089044448,-9.803615667833919,-0.039929964982491246,0.07992996498249125,0.0,0,0,0,43.62
2060520,0.024697348674337163,0.011235617808904447,-9.803615667833919,0.010070035017508755,-7.003501750875438e-05,0.0,0,0,0,43.87
2060530,0.014697348674337155,0.0012356178089044448,-9.813615667833918,0.07007003501750876,-0.07007003501750876,0.0,0,0,0,43.56
2060540,-0.0053026513256628355,-0.008764382191095554,-9.813615667833918,0.08007003501750876,-0.09007003501750875,0.0,0,0,0,43.93
2060550,-0.0053026513256628355,-0.018764382191095552,-9.823615667833918,0.010070035017508755,-0.020070035017508755,0.0,0,0,0,43.75
2060560,-0.0053026513256628355,-0.008764382191095554,-9.813615667833918,-0.04992996498249125,0.04992996498249125,0.0,0,0,0,43.81
2060570,0.0046973486743371595,0.0012356178089044448,-9.823615667833918,-0.08992996498249124,0.09992996498249125,0.0,0,0,0,43.87
2060580,0.014697348674337155,0.011235617808904447,-9.813615667833918,-0.06992996498249125,0.10992996498249125,0.0,0,0,0,44.0
2060590,0.024697348674337163,0.011235617808904447,-9.803615667833919,-0.04992996498249125,0.05992996498249124,0.0,0,0,0,43.75
2060600,0.024697348674337163,0.02123561780890445,-9.793615667833919,0.010070035017508755,0.009929964982491246,0.0,0,0,0,43.81
2060610,0.024697348674337163,0.011235617808904447,-9.793615667833919,0.09007003501750875,-0.05007003501750876,0.01,0,0,0,43.75
2060620,0.03469734867433716,0.011235617808904447,-9.803615667833919,0.14007003501750875,-0.13007003501750874,0.0,0,0,0,43.68
2060630,0.024697348674337163,0.011235617808904447,-9.813615667833918,0.14007003501750875,-0.19007003501750874,0.0,0,0,0,43.75
2060640,0.014697348674337155,0.0012356178089044448,-9.813615667833918,0.15007003501750873,-0.19007003501750874,0.0,0,0,0,43.87
2060650,0.0046973486743371595,-0.008764382191095554,-9.813615667833918,0.15007003501750873,-0.16007003501750874,-0.01,0,0,0,43.75
2060660,0.014697348674337155,-0.008764382191095554,-9.823615667833918,0.11007003501750875,-0.13007003501750874,-0.02,0,0,0,44.06
2060670,0.5446973486743372,0.08123561780890445,-9.843615667833918,0.030070035017508753,-0.030070035017508753,-0.15,0,0,0,43.75
2060680,0.5346973486743372,0.07123561780890444,-9.813615667833918,-0.05992996498249124,0.05992996498249124,-0.38,0,0,0,43.81
2060690,0.5046973486743371,0.11123561780890445,-9.793615667833919,-0.029929964982491244,0.039929964982491246,-0.07,0,0,0,43.87
2060700,1.0346973486743372,0.30123561780890445,-9.793615667833919,0.010070035017508755,0.039929964982491246,0.61,0,0,0,43.87
2060712,1.2946973486743372,0.40123561780890443,-9.813615667833918,0.010070035017508755,0.04992996498249125,2.25,0,0,0,43.87
2060720,1.224697348674337,0.30123561780890445,-9.813615667833918,7.003501750875438e-05,0.039929964982491246,3.37,0,0,0,43.56
2060730,1.174697348674337,0.09123561780890443,-9.803615667833919,-0.04992996498249125,0.029929964982491244,4.18,0,0,0,43.68
2060740,1.164697348674337,-0.21876438219109556,-9.803615667833919,-0.09992996498249125,0.029929964982491244,3.5,0,0,0,43.75
2060750,1.174697348674337,-0.5087643821910955,-9.803615667833919,-0.11992996498249124,0.039929964982491246,1.39,0,0,0,43.87
2060760,1.2446973486743371,-0.6787643821910956,-9.813615667833918,-0.13992996498249127,0.04992996498249125,-0.67,0,0,0,43.87
2060770,1.2746973486743371,-1.1187643821910955,-9.813615667833918,-0.18992996498249126,0.06992996498249125,-2.73,0,0,0,43.75
2060780,1.154697348674337,-1.4287643821910954,-9.813615667833918,-0.17992996498249125,0.07992996498249125,-5.04,0,0,0,43.93
2060790,1.054697348674337,-1.2487643821910954,-9.823615667833918,-0.09992996498249125,0.05992996498249124,-6.97,0,0,0,43.75
2060800,0.9046973486743372,-0.7587643821910955,-9.813615667833918,7.003501750875438e-05,0.04992996498249125,-8.04,0,0,0,43.87
2060810,0.7646973486743371,-0.09876438219109557,-9.813615667833918,0.09007003501750875,0.05992996498249124,-8.49,0,0,0,43.81
2060820,0.6446973486743371,0.5812356178089044,-9.813615667833918,0.16007003501750874,0.06992996498249125,-8.6,0,0,0,43.75
2060830,0.5946973486743372,1.0412356178089046,-9.803615667833919,0.16007003501750874,0.04992996498249125,-8.39,0,0,0,43.81
2060840,0.7046973486743372,1.1912356178089045,-9.793615667833919,0.14007003501750875,0.019929964982491246,-7.89,0,0,0,43.56
2060850,0.9046973486743372,1.2312356178089046,-9.803615667833919,0.12007003501750875,-7.003501750875438e-05,-6.7,0,0,0,43.62
2060860,1.104697348674337,1.2512356178089046,-9.803615667833919,0.11007003501750875,-0.010070035017508755,-4.22,0,0,0,43.75
2060870,1.154697348674337,1.0812356178089046,-9.803615667833919,0.07007003501750876,-0.030070035017508753,-1.05,0,0,0,43.62
2060880,1.0046973486743371,0.6112356178089045,-9.803615667833919,0.05007003501750876,-0.05007003501750876,1.92,0,0,0,43.87
2060890,0.6946973486743372,0.07123561780890444,-9.823615667833918,0.040070035017508755,-0.05007003501750876,4.11,0,0,0,43.87
2060900,0.1946973486743372,-0.31876438219109554,-9.823615667833918,0.020070035017508755,-0.030070035017508753,5.18,0,0,0,43.81
2060910,-0.26530265132566283,-0.5587643821910956,-9.833615667833918,-0.019929964982491246,-0.030070035017508753,5.12,0,0,0,43.81
2060920,-0.5953026513256628,-0.6087643821910955,-9.833615667833918,-0.06992996498249125,-0.030070035017508753,3.8,0,0,0,43.81
2060930,-0.6753026513256628,-0.44876438219109555,-9.833615667833918,-0.08992996498249124,-0.030070035017508753,2.08,0,0,0,43.87
2060940,-0.5953026513256628,-0.12876438219109557,-9.823615667833918,-0.09992996498249125,-0.05007003501750876,0.51,0,0,0,43.75
2060950,-0.3853026513256628,0.06123561780890444,-9.823615667833918,-0.11992996498249124,-0.030070035017508753,-0.25,0,0,0,43.62
2060960,-0.15530265132566284,0.05123561780890445,-9.803615667833919,-0.10992996498249125,-0.010070035017508755,-0.84,0,0,0,43.56
2060970,0.06469734867433717,0.0012356178089044448,-9.803615667833919,-0.04992996498249125,-0.020070035017508755,-1.27,0,0,0,43.68
2060980,0.2046973486743372,0.0012356178089044448,-9.803615667833919,0.010070035017508755,-0.020070035017508755,-0.84,0,0,0,43.81
2060990,0.16469734867433716,0.06123561780890444,-9.803615667833919,0.05007003501750876,-0.010070035017508755,0.27,0,0,0,43.75
2061002,-0.08530265132566284,-0.05876438219109555,-9.813615667833918,0.020070035017508755,-7.003501750875438e-05,1.17,0,0,0,43.81
2061012,-0.30530265132566287,-0.2987643821910956,-9.803615667833919,0.010070035017508755,0.019929964982491246,0.54,0,0,0,43.81
2061020,-0.34530265132566285,-0.3687643821910956,-9.793615667833919,0.040070035017508755,0.019929964982491246,-0.12,0,0,0,43.81
2061030,-0.3653026513256628,-0.39876438219109556,-9.803615667833919,0.08007003501750876,0.019929964982491246,-0.78,0,0,0,44.06
2061040,-0.3853026513256628,-0.2987643821910956,-9.823615667833918,0.12007003501750875,0.029929964982491244,-1.03,0,0,0,43.81
2061050,-0.41530265132566285,-0.12876438219109557,-9.813615667833918,0.16007003501750874,0.029929964982491244,-1.15,0,0,0,43.87
2061060,-0.47530265132566285,0.06123561780890444,-9.803615667833919,0.21007003501750873,0.009929964982491246,-1.23,0,0,0,43.87
2061070,-0.45530265132566283,0.2612356178089044,-9.803615667833919,0.23007003501750875,-0.010070035017508755,-1.28,0,0,0,43.81
2061080,-0.3853026513256628,0.3912356178089044,-9.813615667833918,0.21007003501750873,-0.040070035017508755,-1.08,0,0,0,43.81
2061090,-0.26530265132566283,0.41123561780890444,-9.823615667833918,0.15007003501750873,-0.08007003501750876,-0.49,0,0,0,43.87
2061100,-0.04530265132566284,0.27123561780890443,-9.823615667833918,0.07007003501750876,-0.12007003501750875,0.22,0,0,0,43.93
2061110,0.16469734867433716,0.10123561780890444,-9.813615667833918,0.030070035017508753,-0.13007003501750874,0.79,0,0,0,43.87
2061120,0.27469734867433715,0.05123561780890445,-9.813615667833918,0.010070035017508755,-0.07007003501750876,1.1,0,0,0,43.81
2061130,0.17469734867433717,0.15123561780890443,-9.813615667833918,-0.009929964982491246,0.019929964982491246,1.26,0,0,0,44.12
2061140,0.024697348674337163,0.37123561780890446,-9.803615667833919,-0.009929964982491246,0.04992996498249125,1.69,0,0,0,44.0
2061150,-0.06530265132566285,0.4412356178089044,-9.793615667833919,7.003501750875438e-05,-7.003501750875438e-05,2.54,0,0,0,43.75
2061160,-0.14530265132566283,0.22123561780890444,-9.803615667833919,-0.009929964982491246,-0.020070035017508755,3.14,0,0,0,43.81
2061170,-0.26530265132566283,-0.04876438219109555,-9.813615667833918,-0.019929964982491246,-0.040070035017508755,2.96,0,0,0,44.06
2061180,-0.28530265132566285,-0.14876438219109556,-9.813615667833918,-0.029929964982491244,-0.06007003501750875,2.06,0,0,0,43.75
2061190,-0.27530265132566284,-0.11876438219109556,-9.823615667833918,-0.039929964982491246,-0.06007003501750875,1.4,0,0,0,43.62
2061200,-0.16530265132566285,-0.06876438219109555,-9.823615667833918,-0.039929964982491246,-0.040070035017508755,1.13,0,0,0,43.75
2061210,-0.015302651325662844,-0.028764382191095554,-9.813615667833918,-0.009929964982491246,-0.020070035017508755,1.36,0,0,0,43.81
2061220,0.11469734867433716,-0.038764382191095556,-9.803615667833919,7.003501750875438e-05,-0.030070035017508753,1.8,0,0,0,43.68
2061230,0.16469734867433716,-0.08876438219109556,-9.803615667833919,0.020070035017508755,-0.040070035017508755,1.88,0,0,0,43.81
2061240,0.1946973486743372,-0.05876438219109555,-9.813615667833918,0.020070035017508755,-0.020070035017508755,1.41,0,0,0,44.0
2061250,0.21469734867433715,-0.028764382191095554,-9.813615667833918,7.003501750875438e-05,-7.003501750875438e-05,0.71,0,0,0,43.87
2061262,0.27469734867433715,0.04123561780890445,-9.813615667833918,-0.019929964982491246,-7.003501750875438e-05,-0.09,0,0,0,43.81
2061270,0.3246973486743372,0.12123561780890443,-9.803615667833919,-0.039929964982491246,-7.003501750875438e-05,-0.35,0,0,0,43.75
2061280,0.34469734867433716,0.11123561780890445,-9.803615667833919,-0.06992996498249125,0.039929964982491246,-0.28,0,0,0,43.62
2061290,0.29469734867433717,-0.018764382191095552,-9.813615667833918,-0.11992996498249124,0.09992996498249125,0.02,0,0,0,43.81
2061302,0.09469734867433717,-0.12876438219109557,-9.793615667833919,-0.13992996498249127,0.13992996498249127,0.61,0,0,0,43.56
2061310,-0.04530265132566284,-0.19876438219109557,-9.793615667833919,-0.11992996498249124,0.10992996498249125,0.9,0,0,0,43.93
2061320,-0.12530265132566284,-0.24876438219109556,-9.813615667833918,-0.08992996498249124,0.04992996498249125,0.94,0,0,0,43.75
2061330,-0.0053026513256628355,-0.27876438219109556,-9.823615667833918,-0.06992996498249125,0.029929964982491244,0.52,0,0,0,43.81
2061340,0.18469734867433718,-0.27876438219109556,-9.823615667833918,-0.039929964982491246,0.029929964982491244,-0.01,0,0,0,44.06
2061350,0.29469734867433717,-0.07876438219109555,-9.813615667833918,0.010070035017508755,0.04992996498249125,-0.46,0,0,0,43.81
2061362,0.2546973486743372,0.4412356178089044,-9.793615667833919,0.15007003501750873,0.029929964982491244,-0.56,0,0,0,43.81
2061370,0.28469734867433716,0.6612356178089044,-9.793615667833919,0.21007003501750873,0.009929964982491246,-0.16,0,0,0,43.56
2061380,0.3246973486743372,0.6712356178089044,-9.793615667833919,0.27007003501750876,-0.020070035017508755,1.0,0,0,0,43.87
2061390,0.35469734867433717,0.35123561780890444,-9.803615667833919,0.28007003501750877,-0.030070035017508753,2.36,0,0,0,43.75
2061400,0.3646973486743372,-0.028764382191095554,-9.823615667833918,0.23007003501750875,-0.010070035017508755,3.13,0,0,0,43.87
2061410,0.33469734867433715,-0.3687643821910956,-9.823615667833918,0.17007003501750875,0.039929964982491246,3.19,0,0,0,43.87
2061420,0.12469734867433717,-0.44876438219109555,-9.803615667833919,0.15007003501750873,0.04992996498249125,2.64,0,0,0,43.87
2061430,-0.17530265132566286,-0.3587643821910956,-9.813615667833918,0.13007003501750874,0.05992996498249124,1.9,0,0,0,43.87
2061440,-0.4953026513256628,-0.20876438219109555,-9.813615667833918,0.09007003501750875,0.08992996498249124,1.3,0,0,0,43.62
2061450,-0.7253026513256629,0.05123561780890445,-9.823615667833918,0.06007003501750875,0.10992996498249125,0.75,0,0,0,43.5
2061460,-0.7653026513256628,0.3312356178089044,-9.813615667833918,0.05007003501750876,0.08992996498249124,0.17,0,0,0,43.75
2061470,-0.6853026513256628,0.5212356178089045,-9.813615667833918,0.05007003501750876,0.04992996498249125,-0.28,0,0,0,43.75
2061480,-0.4453026513256628,0.5712356178089044,-9.803615667833919,0.030070035017508753,0.039929964982491246,-0.43,0,0,0,43.62
2061490,-0.08530265132566284,0.40123561780890443,-9.803615667833919,7.003501750875438e-05,0.019929964982491246,-0.52,0,0,0,43.81
2061500,0.17469734867433717,0.18123561780890443,-9.803615667833919,7.003501750875438e-05,-7.003501750875438e-05,-0.88,0,0,0,43.87
2061510,0.3846973486743372,0.08123561780890445,-9.813615667833918,-0.009929964982491246,-0.010070035017508755,-1.28,0,0,0,43.81
2061520,0.4646973486743372,0.011235617808904447,-9.823615667833918,-0.039929964982491246,0.019929964982491246,-1.36,0,0,0,43.68
2061530,0.39469734867433715,-0.008764382191095554,-9.803615667833919,-0.039929964982491246,0.04992996498249125,-1.21,0,0,0,43.87
2061540,0.22469734867433716,0.0012356178089044448,-9.783615667833919,7.003501750875438e-05,0.019929964982491246,-0.91,0,0,0,43.62
2061550,0.06469734867433717,-0.008764382191095554,-9.793615667833919,0.08007003501750876,-0.05007003501750876,-0.3,0,0,0,43.68
2061560,-0.07530265132566284,-0.06876438219109555,-9.813615667833918,0.11007003501750875,-0.06007003501750875,0.63,0,0,0,43.81
2061570,-0.21530265132566284,-0.22876438219109557,-9.823615667833918,0.06007003501750875,-0.030070035017508753,1.4,0,0,0,43.93
2061580,-0.29530265132566286,-0.32876438219109555,-9.833615667833918,-0.019929964982491246,0.039929964982491246,1.6,0,0,0,43.62
2061590,-0.2553026513256628,-0.43876438219109554,-9.833615667833918,-0.08992996498249124,0.10992996498249125,0.99,0,0,0,43.75
2061600,-0.13530265132566283,-0.46876438219109556,-9.813615667833918,-0.09992996498249125,0.12992996498249126,-0.2,0,0,0,43.75
2061610,0.04469734867433715,-0.2987643821910956,-9.803615667833919,-0.04992996498249125,0.10992996498249125,-1.3,0,0,0,43.81
2061620,0.17469734867433717,-0.028764382191095554,-9.803615667833919,7.003501750875438e-05,0.07992996498249125,-1.93,0,0,0,43.75
2061630,0.29469734867433717,0.19123561780890444,-9.813615667833918,0.040070035017508755,0.05992996498249124,-1.95,0,0,0,43.81
2061640,0.3846973486743372,0.22123561780890444,-9.823615667833918,0.010070035017508755,0.04992996498249125,-1.33,0,0,0,43.81
2061650,0.40469734867433715,0.09123561780890443,-9.823615667833918,-0.009929964982491246,0.05992996498249124,-0.42,0,0,0,43.87
2061660,0.29469734867433717,-0.038764382191095556,-9.813615667833918,-0.039929964982491246,0.039929964982491246,0.31,0,0,0,43.68
2061670,0.16469734867433716,-0.16876438219109557,-9.813615667833918,-0.039929964982491246,-7.003501750875438e-05,0.4,0,0,0,43.75
2061680,0.06469734867433717,-0.46876438219109556,-9.813615667833918,-0.06992996498249125,-0.020070035017508755,-0.3,0,0,0,43.81
2061690,0.014697348674337155,-0.6587643821910956,-9.813615667833918,-0.07992996498249125,-0.040070035017508755,-1.6,0,0,0,43.87
2061700,-0.0053026513256628355,-0.5487643821910956,-9.803615667833919,-0.009929964982491246,-0.06007003501750875,-2.89,0,0,0,43.68
2061710,0.0046973486743371595,-0.20876438219109555,-9.793615667833919,0.06007003501750875,-0.07007003501750876,-3.62,0,0,0,43.75
2061720,0.10469734867433715,0.13123561780890444,-9.813615667833918,0.11007003501750875,-0.05007003501750876,-3.82,0,0,0,43.87
2061730,0.3646973486743372,0.28123561780890444,-9.813615667833918,0.12007003501750875,-0.020070035017508755,-3.69,0,0,0,43.75
2061740,0.6846973486743372,0.29123561780890445,-9.813615667833918,0.09007003501750875,0.009929964982491246,-3.18,0,0,0,44.0
2061750,0.8746973486743371,0.23123561780890445,-9.803615667833919,0.05007003501750876,0.029929964982491244,-2.44,0,0,0,43.62
2061760,0.9346973486743372,0.20123561780890445,-9.803615667833919,0.020070035017508755,0.009929964982491246,-2.16,0,0,0,43.87
2061770,0.9446973486743372,0.17123561780890445,-9.823615667833918,7.003501750875438e-05,0.019929964982491246,-2.16,0,0,0,43.87
2061780,0.8146973486743372,-0.04876438219109555,-9.803615667833919,-0.04992996498249125,0.05992996498249124,-1.77,0,0,0,43.62
2061790,0.5346973486743372,-0.3687643821910956,-9.793615667833919,-0.06992996498249125,-7.003501750875438e-05,-1.47,0,0,0,44.0
2061802,0.14469734867433715,-0.5387643821910956,-9.843615667833918,-0.09992996498249125,0.019929964982491246,-1.41,0,0,0,43.56
2061812,-0.32530265132566283,-0.4187643821910956,-9.833615667833918,-0.14992996498249125,0.12992996498249126,-0.94,0,0,0,43.68
2061820,-0.6553026513256628,-0.22876438219109557,-9.823615667833918,-0.11992996498249124,0.08992996498249124,-0.72,0,0,0,43.87
2061830,-0.9353026513256628,0.13123561780890444,-9.823615667833918,-0.019929964982491246,-7.003501750875438e-05,-0.88,0,0,0,43.87
2061840,-0.8953026513256628,0.3312356178089044,-9.813615667833918,0.08007003501750876,-0.06007003501750875,-1.32,0,0,0,43.75
2061852,-0.6553026513256628,0.20123561780890445,-9.803615667833919,0.18007003501750873,-0.11007003501750875,-1.88,0,0,0,43.75
2061862,-0.4453026513256628,-0.028764382191095554,-9.813615667833918,0.19007003501750874,-0.11007003501750875,-2.43,0,0,0,43.5
2061870,-0.3153026513256628,-0.12876438219109557,-9.823615667833918,0.18007003501750873,-0.10007003501750876,-2.81,0,0,0,43.75
2061880,-0.11530265132566284,-0.07876438219109555,-9.823615667833918,0.18007003501750873,-0.08007003501750876,-2.94,0,0,0,43.68
2061890,0.0046973486743371595,-0.06876438219109555,-9.813615667833918,0.15007003501750873,-0.030070035017508753,-2.63,0,0,0,43.93
2061900,0.08469734867433716,-0.08876438219109556,-9.793615667833919,0.11007003501750875,0.019929964982491246,-2.45,0,0,0,44.0
2061912,0.16469734867433716,-0.07876438219109555,-9.813615667833918,0.08007003501750876,0.07992996498249125,-2.34,0,0,0,43.81
2061920,0.18469734867433718,-0.21876438219109556,-9.813615667833918,0.07007003501750876,0.10992996498249125,-2.31,0,0,0,43.75
2061930,0.16469734867433716,-0.43876438219109554,-9.823615667833918,0.06007003501750875,0.12992996498249126,-2.46,0,0,0,43.81
2061940,0.06469734867433717,-0.5687643821910956,-9.833615667833918,0.07007003501750876,0.10992996498249125,-2.62,0,0,0,43.81
2061950,-0.07530265132566284,-0.5387643821910956,-9.823615667833918,0.11007003501750875,0.05992996498249124,-2.65,0,0,0,43.81
2061960,-0.15530265132566284,-0.2987643821910956,-9.823615667833918,0.17007003501750875,0.039929964982491246,-2.68,0,0,0,43.87
2061970,-0.21530265132566284,-0.028764382191095554,-9.813615667833918,0.18007003501750873,0.08992996498249124,-2.54,0,0,0,43.87
2061980,-0.2553026513256628,0.16123561780890444,-9.803615667833919,0.18007003501750873,0.07992996498249125,-2.31,0,0,0,43.87
2061990,-0.18530265132566284,0.17123561780890445,-9.793615667833919,0.14007003501750875,0.039929964982491246,-2.21,0,0,0,43.81
2062002,-0.10530265132566284,0.04123561780890445,-9.813615667833918,0.07007003501750876,-0.07007003501750876,-2.05,0,0,0,43.62
2062010,-0.13530265132566283,0.011235617808904447,-9.813615667833918,0.010070035017508755,-0.12007003501750875,-1.94,0,0,0,43.93
2062020,-0.19530265132566282,0.06123561780890444,-9.813615667833918,-0.05992996498249124,-0.15007003501750873,-1.66,0,0,0,43.56
2062030,-0.19530265132566282,0.05123561780890445,-9.813615667833918,-0.09992996498249125,-0.17007003501750875,-1.34,0,0,0,43.87
2062040,-0.11530265132566284,-0.018764382191095552,-9.833615667833918,-0.16992996498249127,-0.09007003501750875,-0.74,0,0,0,43.93
2062052,-0.11530265132566284,-0.14876438219109556,-9.843615667833918,-0.22992996498249127,0.06992996498249125,0.03,0,0,0,43.75
2062060,-0.20530265132566283,-0.18876438219109556,-9.823615667833918,-0.23992996498249125,0.14992996498249125,0.07,0,0,0,43.93
2062070,-0.3653026513256628,-0.12876438219109557,-9.793615667833919,-0.19992996498249127,0.12992996498249126,-0.25,0,0,0,43.87
2062080,-0.47530265132566285,-0.05876438219109555,-9.793615667833919,-0.09992996498249125,0.019929964982491246,-0.65,0,0,0,43.87
2062090,-0.47530265132566285,0.0012356178089044448,-9.823615667833918,-0.029929964982491244,-0.06007003501750875,-0.73,0,0,0,43.93
2062100,-0.34530265132566285,-0.008764382191095554,-9.833615667833918,7.003501750875438e-05,-0.06007003501750875,-0.74,0,0,0,43.62
2062112,-0.10530265132566284,-0.09876438219109557,-9.823615667833918,7.003501750875438e-05,-0.020070035017508755,-0.93,0,0,0,43.93
2062120,0.0046973486743371595,-0.028764382191095554,-9.833615667833918,0.010070035017508755,-7.003501750875438e-05,-1.03,0,0,0,43.75
2062130,0.07469734867433715,0.10123561780890444,-9.823615667833918,0.040070035017508755,-0.010070035017508755,-0.79,0,0,0,43.93
2062140,0.03469734867433716,0.17123561780890445,-9.823615667833918,0.05007003501750876,-0.030070035017508753,-0.13,0,0,0,43.87
2062150,-0.12530265132566284,0.20123561780890445,-9.813615667833918,0.05007003501750876,-0.05007003501750876,0.48,0,0,0,43.68
2062160,-0.33530265132566284,0.15123561780890443,-9.803615667833919,0.040070035017508755,-0.040070035017508755,1.03,0,0,0,44.06
2062170,-0.5653026513256628,0.02123561780890445,-9.803615667833919,0.040070035017508755,-0.040070035017508755,1.14,0,0,0,43.75
2062180,-0.7153026513256628,-0.038764382191095556,-9.813615667833918,0.040070035017508755,-0.030070035017508753,1.0,0,0,0,43.62
2062190,-0.7653026513256628,-0.08876438219109556,-9.833615667833918,0.020070035017508755,-7.003501750875438e-05,0.58,0,0,0,43.93
2062200,-0.7053026513256628,-0.028764382191095554,-9.833615667833918,0.010070035017508755,0.04992996498249125,0.17,0,0,0,43.87
2062212,-0.5753026513256628,0.07123561780890444,-9.813615667833918,0.040070035017508755,0.08992996498249124,0.01,0,0,0,43.75
2062220,-0.4353026513256628,0.11123561780890445,-9.813615667833918,0.05007003501750876,0.07992996498249125,0.05,0,0,0,43.75
2062230,-0.29530265132566286,0.08123561780890445,-9.813615667833918,0.06007003501750875,0.05992996498249124,0.09,0,0,0,43.56
2062240,-0.21530265132566284,0.08123561780890445,-9.813615667833918,0.10007003501750876,0.009929964982491246,0.05,0,0,0,43.87
2062250,-0.16530265132566285,0.05123561780890445,-9.813615667833918,0.10007003501750876,-0.010070035017508755,0.03,0,0,0,43.87
2062260,-0.12530265132566284,-0.06876438219109555,-9.813615667833918,0.09007003501750875,-0.020070035017508755,-0.13,0,0,0,43.62
2062270,-0.07530265132566284,-0.09876438219109557,-9.813615667833918,0.07007003501750876,-0.040070035017508755,-0.17,0,0,0,43.81
2062280,-0.03530265132566284,-0.16876438219109557,-9.813615667833918,0.040070035017508755,-0.030070035017508753,-0.01,0,0,0,43.93
2062290,-0.02530265132566284,-0.20876438219109555,-9.813615667833918,0.010070035017508755,-0.010070035017508755,0.3,0,0,0,43.62
2062300,-0.07530265132566284,-0.31876438219109554,-9.813615667833918,-0.019929964982491246,0.009929964982491246,0.48,0,0,0,43.93
2062310,-0.19530265132566282,-0.4187643821910956,-9.823615667833918,-0.04992996498249125,0.029929964982491244,0.27,0,0,0,43.56
2062320,-0.39530265132566283,-0.4187643821910956,-9.813615667833918,-0.05992996498249124,0.039929964982491246,-0.27,0,0,0,43.56
2062330,-0.5953026513256628,-0.27876438219109556,-9.833615667833918,-0.039929964982491246,0.039929964982491246,-0.97,0,0,0,43.56
2062340,-0.7053026513256628,0.011235617808904447,-9.833615667833918,-0.019929964982491246,0.039929964982491246,-1.26,0,0,0,44.0
2062350,-0.6753026513256628,0.14123561780890445,-9.833615667833918,-0.009929964982491246,0.04992996498249125,-1.34,0,0,0,43.68
2062360,-0.4853026513256628,0.13123561780890444,-9.813615667833918,-0.029929964982491244,0.05992996498249124,-1.44,0,0,0,43.62
2062370,-0.3153026513256628,0.06123561780890444,-9.813615667833918,-0.029929964982491244,0.039929964982491246,-1.19,0,0,0,43.87
2062380,-0.18530265132566284,0.02123561780890445,-9.813615667833918,-0.04992996498249125,0.029929964982491244,-0.7,0,0,0,43.62
2062390,-0.13530265132566283,-0.08876438219109556,-9.813615667833918,-0.05992996498249124,0.009929964982491246,-0.28,0,0,0,43.87
2062400,-0.13530265132566283,-0.18876438219109556,-9.813615667833918,-0.06992996498249125,-7.003501750875438e-05,-0.21,0,0,0,43.87
2062410,-0.14530265132566283,-0.20876438219109555,-9.813615667833918,-0.09992996498249125,0.029929964982491244,-0.32,0,0,0,43.93
2062420,-0.14530265132566283,-0.14876438219109556,-9.813615667833918,-0.09992996498249125,0.029929964982491244,-0.25,0,0,0,43.93
2062430,-0.10530265132566284,-0.08876438219109556,-9.803615667833919,-0.08992996498249124,0.029929964982491244,0.03,0,0,0,43.87
2062440,-0.16530265132566285,0.011235617808904447,-9.803615667833919,-0.04992996498249125,0.019929964982491246,0.6,0,0,0,43.62
2062450,-0.32530265132566283,0.10123561780890444,-9.813615667833918,7.003501750875438e-05,0.019929964982491246,1.16,0,0,0,43.75
2062460,-0.4853026513256628,0.09123561780890443,-9.823615667833918,0.010070035017508755,0.019929964982491246,1.41,0,0,0,43.68
2062470,-0.6553026513256628,0.04123561780890445,-9.823615667833918,0.020070035017508755,0.019929964982491246,1.41,0,0,0,43.68
2062480,-0.6853026513256628,-0.018764382191095552,-9.823615667833918,7.003501750875438e-05,0.019929964982491246,1.19,0,0,0,44.12
2062490,-0.5453026513256628,-0.07876438219109555,-9.813615667833918,-0.009929964982491246,0.019929964982491246,0.94,0,0,0,43.56
2062500,-0.40530265132566284,-0.11876438219109556,-9.813615667833918,-0.039929964982491246,0.019929964982491246,0.76,0,0,0,43.75
2062510,-0.32530265132566283,-0.09876438219109557,-9.803615667833919,-0.039929964982491246,0.029929964982491244,0.62,0,0,0,43.81
2062520,-0.26530265132566283,-0.04876438219109555,-9.813615667833918,-0.019929964982491246,0.029929964982491244,0.47,0,0,0,43.75
2062530,-0.20530265132566283,-0.038764382191095556,-9.813615667833918,-0.009929964982491246,0.029929964982491244,0.34,0,0,0,43.62
2062540,-0.21530265132566284,-0.018764382191095552,-9.823615667833918,0.020070035017508755,0.019929964982491246,0.29,0,0,0,43.87
2062550,-0.24530265132566287,0.011235617808904447,-9.813615667833918,0.040070035017508755,0.019929964982491246,0.29,0,0,0,43.75
2062562,-0.3653026513256628,0.011235617808904447,-9.813615667833918,0.05007003501750876,0.009929964982491246,0.27,0,0,0,43.68
2062570,-0.4353026513256628,-0.008764382191095554,-9.823615667833918,0.05007003501750876,-7.003501750875438e-05,0.23,0,0,0,43.87
2062580,-0.3853026513256628,-0.038764382191095556,-9.833615667833918,0.030070035017508753,-7.003501750875438e-05,0.1,0,0,0,44.0
2062590,-0.13530265132566283,-0.04876438219109555,-9.833615667833918,-0.039929964982491246,0.04992996498249125,0.02,0,0,0,43.62
2062600,0.0046973486743371595,-0.028764382191095554,-9.823615667833918,-0.09992996498249125,0.08992996498249124,0.0,0,0,0,43.93
2062610,0.05469734867433716,-0.028764382191095554,-9.803615667833919,-0.06992996498249125,0.05992996498249124,0.0,0,0,0,43.87
2062620,0.04469734867433715,-0.028764382191095554,-9.803615667833919,-0.019929964982491246,-7.003501750875438e-05,0.0,0,0,0,43.75
2062630,0.03469734867433716,-0.028764382191095554,-9.813615667833918,7.003501750875438e-05,-0.020070035017508755,0.0,0,0,0,43.75
2062640,0.024697348674337163,-0.028764382191095554,-9.813615667833918,-0.009929964982491246,-0.020070035017508755,0.0,0,0,0,44.18
2062650,0.024697348674337163,-0.028764382191095554,-9.813615667833918,-0.029929964982491244,-0.010070035017508755,0.0,0,0,0,43.93
2062660,0.014697348674337155,-0.028764382191095554,-9.813615667833918,-0.029929964982491244,0.019929964982491246,0.0,0,0,0,43.87
2062670,0.014697348674337155,-0.028764382191095554,-9.813615667833918,-0.029929964982491244,0.039929964982491246,0.0,0,0,0,43.93
2062680,0.024697348674337163,-0.018764382191095552,-9.813615667833918,7.003501750875438e-05,0.039929964982491246,0.0,0,0,0,43.81
2062690,0.024697348674337163,-0.028764382191095554,-9.813615667833918,0.030070035017508753,0.019929964982491246,0.0,0,0,0,43.62
2062700,0.03469734867433716,-0.028764382191095554,-9.803615667833919,0.06007003501750875,-7.003501750875438e-05,0.0,0,0,0,43.87
2062710,0.03469734867433716,-0.028764382191095554,-9.803615667833919,0.05007003501750876,-0.020070035017508755,0.0,0,0,0,43.81
2062720,0.024697348674337163,-0.028764382191095554,-9.803615667833919,7.003501750875438e-05,-0.030070035017508753,0.0,0,0,0,43.62
2062730,0.024697348674337163,-0.008764382191095554,-9.823615667833918,7.003501750875438e-05,-0.020070035017508755,0.0,0,0,0,43.81
2062740,-0.0053026513256628355,-0.05876438219109555,-9.843615667833918,-0.09992996498249125,-7.003501750875438e-05,0.0,0,0,0,43.81
2062752,-0.0053026513256628355,-0.008764382191095554,-9.843615667833918,-0.21992996498249126,0.10992996498249125,0.0,0,0,0,43.81
2062760,0.014697348674337155,-0.028764382191095554,-9.823615667833918,-0.15992996498249126,0.15992996498249126,0.0,0,0,0,43.68
2062770,0.014697348674337155,-0.018764382191095552,-9.803615667833919,-0.10992996498249125,0.16992996498249127,0.0,0,0,0,43.87
2062780,0.014697348674337155,-0.008764382191095554,-9.813615667833918,-0.019929964982491246,0.16992996498249127,0.0,0,0,0,43.81
2062790,0.03469734867433716,-0.028764382191095554,-9.803615667833919,0.05007003501750876,0.14992996498249125,-0.01,0,0,0,43.81
2062800,0.06469734867433717,-0.038764382191095556,-9.783615667833919,7.003501750875438e-05,0.06992996498249125,0.0,0,0,0,43.75
2062810,0.05469734867433716,-0.028764382191095554,-9.793615667833919,-0.09992996498249125,-0.05007003501750876,0.0,0,0,0,43.56
2062820,0.03469734867433716,-0.028764382191095554,-9.803615667833919,-0.11992996498249124,-0.10007003501750876,0.0,0,0,0,43.87
2062830,0.014697348674337155,-0.018764382191095552,-9.823615667833918,-0.12992996498249126,-0.08007003501750876,0.0,0,0,0,43.75
2062840,0.014697348674337155,-0.008764382191095554,-9.833615667833918,-0.07992996498249125,-0.040070035017508755,0.0,0,0,0,43.81
2062850,0.014697348674337155,-0.028764382191095554,-9.813615667833918,-0.06992996498249125,-0.010070035017508755,0.0,0,0,0,43.93
2062860,0.0046973486743371595,-0.07876438219109555,-9.793615667833919,-0.2699299649824913,-0.010070035017508755,0.0,0,0,0,43.75
2062870,-0.015302651325662844,0.011235617808904447,-9.823615667833918,-0.7199299649824912,0.11992996498249124,0.0,0,0,0,43.81
2062880,0.03469734867433716,0.02123561780890445,-9.823615667833918,-0.46992996498249123,0.11992996498249124,0.0,0,0,0,44.0
2062890,0.04469734867433715,0.011235617808904447,-9.813615667833918,-0.2799299649824913,0.06992996498249125,0.0,0,0,0,43.75
2062900,0.03469734867433716,0.031235617808904444,-9.793615667833919,-0.16992996498249127,0.029929964982491244,0.01,0,0,0,43.87
2062910,0.04469734867433715,0.011235617808904447,-9.793615667833919,-0.039929964982491246,0.009929964982491246,0.0,0,0,0,43.75
2062920,0.03469734867433716,0.0012356178089044448,-9.803615667833919,7.003501750875438e-05,-7.003501750875438e-05,0.0,0,0,0,44.06
2062930,0.03469734867433716,0.0012356178089044448,-9.813615667833918,7.003501750875438e-05,-7.003501750875438e-05,0.0,0,0,0,43.75
2062940,0.03469734867433716,-0.008764382191095554,-9.813615667833918,7.003501750875438e-05,-7.003501750875438e-05,0.0,0,0,0,43.81
2062950,0.03469734867433716,-0.008764382191095554,-9.813615667833918,7.003501750875438e-05,-7.003501750875438e-05,0.0,0,0,0,44.06
2062960,0.03469734867433716,-0.008764382191095554,-9.813615667833918,7.003501750875438e-05,-7.003501750875438e-05,0.0,0,0,0,43.87
2062970,0.03469734867433716,0.0012356178089044448,-9.813615667833918,-0.009929964982491246,-7.003501750875438e-05,0.0,0,0,0,43.62
2062980,0.03469734867433716,0.011235617808904447,-9.813615667833918,7.003501750875438e-05,-7.003501750875438e-05,0.0,0,0,0,43.87
2062990,0.03469734867433716,0.0012356178089044448,-9.813615667833918,7.003501750875438e-05,-7.003501750875438e-05,0.0,0,0,0,43.93
2063002,0.024697348674337163,0.0012356178089044448,-9.813615667833918,7.003501750875438e-05,-7.003501750875438e-05,0.0,0,0,0,43.81
2063010,0.024697348674337163,0.0012356178089044448,-9.803615667833919,7.003501750875438e-05,-7.003501750875438e-05,0.0,0,0,0,43.87
2063020,0.024697348674337163,0.0012356178089044448,-9.813615667833918,7.003501750875438e-05,-7.003501750875438e-05,0.0,0,0,0,43.75
2063030,0.03469734867433716,-0.008764382191095554,-9.813615667833918,7.003501750875438e-05,-7.003501750875438e-05,0.0,0,0,0,43.75
2063040,0.03469734867433716,-0.008764382191095554,-9.803615667833919,7.003501750875438e-05,-7.003501750875438e-05,0.0,0,0,0,43.75
2063050,0.04469734867433715,0.0012356178089044448,-9.803615667833919,7.003501750875438e-05,-7.003501750875438e-05,0.0,0,0,0,43.56
2063060,0.03469734867433716,0.0012356178089044448,-9.813615667833918,7.003501750875438e-05,-7.003501750875438e-05,0.0,0,0,0,43.5
2063070,0.024697348674337163,0.0012356178089044448,-9.813615667833918,7.003501750875438e-05,-7.003501750875438e-05,0.0,0,0,0,43.56
2063080,0.024697348674337163,0.0012356178089044448,-9.813615667833918,7.003501750875438e-05,-7.003501750875438e-05,0.0,0,0,0,44.0
2063090,0.024697348674337163,0.0012356178089044448,-9.813615667833918,7.003501750875438e-05,-7.003501750875438e-05,0.0,0,0,0,43.87
2063100,0.024697348674337163,0.0012356178089044448,-9.813615667833918,7.003501750875438e-05,-7.003501750875438e-05,0.0,0,0,0,43.93
2063110,0.03469734867433716,0.0012356178089044448,-9.813615667833918,7.003501750875438e-05,-7.003501750875438e-05,0.0,0,0,0,43.75
2063120,0.024697348674337163,0.0012356178089044448,-9.813615667833918,7.003501750875438e-05,-7.003501750875438e-05,0.0,0,0,0,43.81
2063130,0.024697348674337163,0.0012356178089044448,-9.813615667833918,7.003501750875438e-05,-7.003501750875438e-05,0.0,0,0,0,43.93
2063140,0.024697348674337163,0.0012356178089044448,-9.813615667833918,7.003501750875438e-05,-7.003501750875438e-05,0.0,0,0,0,43.62
2063150,0.024697348674337163,0.011235617808904447,-9.813615667833918,7.003501750875438e-05,-7.003501750875438e-05,0.0,0,0,0,43.75
2063160,0.024697348674337163,0.0012356178089044448,-9.813615667833918,7.003501750875438e-05,-7.003501750875438e-05,0.0,0,0,0,43.75
2063170,0.024697348674337163,0.0012356178089044448,-9.803615667833919,7.003501750875438e-05,-7.003501750875438e-05,0.0,0,0,0,43.81
2063180,0.03469734867433716,0.0012356178089044448,-9.803615667833919,7.003501750875438e-05,-7.003501750875438e-05,0.0,0,0,0,43.87
2063190,0.024697348674337163,0.0012356178089044448,-9.803615667833919,7.003501750875438e-05,-7.003501750875438e-05,0.0,0,0,0,43.87
2063200,0.03469734867433716,0.0012356178089044448,-9.813615667833918,7.003501750875438e-05,-7.003501750875438e-05,0.0,0,0,0,44.06
2063210,0.03469734867433716,0.0012356178089044448,-9.813615667833918,7.003501750875438e-05,-7.003501750875438e-05,0.0,0,0,0,43.75
2063220,0.03469734867433716,-0.008764382191095554,-9.823615667833918,7.003501750875438e-05,-7.003501750875438e-05,0.0,0,0,0,43.81
2063230,0.024697348674337163,0.0012356178089044448,-9.813615667833918,7.003501750875438e-05,-7.003501750875438e-05,0.0,0,0,0,43.68
2063240,0.03469734867433716,0.0012356178089044448,-9.813615667833918,7.003501750875438e-05,-7.003501750875438e-05,0.0,0,0,0,44.06
2063250,0.024697348674337163,0.011235617808904447,-9.803615667833919,-0.009929964982491246,-7.003501750875438e-05,0.0,0,0,0,43.75
2063260,0.024697348674337163,0.0012356178089044448,-9.803615667833919,7.003501750875438e-05,-7.003501750875438e-05,0.0,0,0,0,43.93
2063270,0.024697348674337163,0.0012356178089044448,-9.803615667833919,7.003501750875438e-05,-7.003501750875438e-05,0.0,0,0,0,43.75
2063280,0.03469734867433716,-0.008764382191095554,-9.813615667833918,7.003501750875438e-05,-7.003501750875438e-05,0.0,0,0,0,43.75
2063290,0.03469734867433716,0.0012356178089044448,-9.813615667833918,7.003501750875438e-05,-7.003501750875438e-05,0.0,0,0,0,43.81
2063300,0.024697348674337163,0.0012356178089044448,-9.813615667833918,7.003501750875438e-05,-7.003501750875438e-05,0.0,0,0,0,43.68
2063310,0.03469734867433716,0.0012356178089044448,-9.813615667833918,7.003501750875438e-05,-7.003501750875438e-05,0.0,0,0,0,43.81
2063320,0.03469734867433716,0.0012356178089044448,-9.813615667833918,7.003501750875438e-05,-7.003501750875438e-05,0.0,0,0,0,43.87
2063330,0.03469734867433716,0.0012356178089044448,-9.813615667833918,7.003501750875438e-05,-7.003501750875438e-05,0.0,0,0,0,43.75
2063340,0.024697348674337163,0.0012356178089044448,-9.813615667833918,7.003501750875438e-05,-7.003501750875438e-05,0.0,0,0,0,43.93
2063350,0.03469734867433716,0.0012356178089044448,-9.813615667833918,7.003501750875438e-05,-7.003501750875438e-05,0.0,0,0,0,43.87
2063360,0.03469734867433716,0.0012356178089044448,-9.813615667833918,7.003501750875438e-05,-7.003501750875438e-05,0.0,0,0,0,43.87
2063370,0.03469734867433716,0.0012356178089044448,-9.813615667833918,7.003501750875438e-05,-7.003501750875438e-05,0.0,0,0,0,43.75
2063380,0.03469734867433716,0.0012356178089044448,-9.813615667833918,7.003501750875438e-05,-7.003501750875438e-05,0.0,0,0,0,43.75
2063390,0.03469734867433716,0.0012356178089044448,-9.823615667833918,7.003501750875438e-05,-7.003501750875438e-05,0.0,0,0,0,43.81
2063400,0.024697348674337163,0.0012356178089044448,-9.833615667833918,7.003501750875438e-05,-7.003501750875438e-05,0.0,0,0,0,43.87
2063410,0.024697348674337163,0.0012356178089044448,-9.823615667833918,7.003501750875438e-05,-7.003501750875438e-05,0.0,0,0,0,43.81
2063420,0.024697348674337163,0.0012356178089044448,-9.813615667833918,7.003501750875438e-05,-7.003501750875438e-05,0.0,0,0,0,43.87
2063430,0.024697348674337163,0.0012356178089044448,-9.813615667833918,7.003501750875438e-05,-7.003501750875438e-05,0.0,0,0,0,43.75
2063440,0.024697348674337163,0.0012356178089044448,-9.813615667833918,7.003501750875438e-05,-7.003501750875438e-05,0.0,0,0,0,43.93
2063450,0.03469734867433716,0.0012356178089044448,-9.813615667833918,7.003501750875438e-05,-7.003501750875438e-05,0.0,0,0,0,43.87
2063460,0.03469734867433716,0.0012356178089044448,-9.823615667833918,7.003501750875438e-05,-7.003501750875438e-05,0.0,0,0,0,43.75
2063470,0.024697348674337163,0.0012356178089044448,-9.823615667833918,7.003501750875438e-05,-7.003501750875438e-05,0.0,0,0,0,43.81
2063480,0.024697348674337163,0.0012356178089044448,-9.813615667833918,7.003501750875438e-05,-7.003501750875438e-05,0.0,0,0,0,43.87
2063490,0.024697348674337163,0.0012356178089044448,-9.813615667833918,7.003501750875438e-05,-7.003501750875438e-05,0.0,0,0,0,43.56
2063500,0.03469734867433716,0.0012356178089044448,-9.813615667833918,7.003501750875438e-05,-7.003501750875438e-05,0.0,0,0,0,43.87
2063510,0.03469734867433716,0.0012356178089044448,-9.813615667833918,7.003501750875438e-05,-7.003501750875438e-05,0.0,0,0,0,43.75
2063520,0.03469734867433716,0.0012356178089044448,-9.813615667833918,7.003501750875438e-05,-7.003501750875438e-05,0.0,0,0,0,43.75
2063530,0.03469734867433716,-0.008764382191095554,-9.813615667833918,7.003501750875438e-05,-7.003501750875438e-05,0.0,0,0,0,43.62
2063540,0.03469734867433716,-0.008764382191095554,-9.813615667833918,7.003501750875438e-05,-7.003501750875438e-05,0.0,0,0,0,43.75
2063550,0.03469734867433716,0.0012356178089044448,-9.813615667833918,7.003501750875438e-05,-7.003501750875438e-05,0.0,0,0,0,43.81
2063560,0.024697348674337163,0.0012356178089044448,-9.813615667833918,7.003501750875438e-05,-7.003501750875438e-05,0.0,0,0,0,43.93
2063570,0.03469734867433716,0.0012356178089044448,-9.813615667833918,7.003501750875438e-05,-7.003501750875438e-05,0.0,0,0,0,43.5
2063580,0.03469734867433716,0.011235617808904447,-9.803615667833919,7.003501750875438e-05,-7.003501750875438e-05,0.0,0,0,0,43.75
2063590,0.03469734867433716,0.0012356178089044448,-9.813615667833918,7.003501750875438e-05,-7.003501750875438e-05,0.0,0,0,0,43.75
2063600,0.024697348674337163,0.0012356178089044448,-9.813615667833918,7.003501750875438e-05,-7.003501750875438e-05,0.0,0,0,0,43.87
2063610,0.024697348674337163,0.0012356178089044448,-9.813615667833918,7.003501750875438e-05,-7.003501750875438e-05,0.0,0,0,0,43.81
2063620,0.024697348674337163,0.0012356178089044448,-9.813615667833918,7.003501750875438e-05,-7.003501750875438e-05,0.0,0,0,0,43.68
2063630,0.024697348674337163,-0.008764382191095554,-9.813615667833918,7.003501750875438e-05,-7.003501750875438e-05,0.0,0,0,0,43.68
2063640,0.03469734867433716,-0.008764382191095554,-9.813615667833918,7.003501750875438e-05,-7.003501750875438e-05,0.0,0,0,0,43.81
2063650,0.03469734867433716,-0.008764382191095554,-9.823615667833918,7.003501750875438e-05,-7.003501750875438e-05,0.0,0,0,0,43.75
2063660,0.03469734867433716,0.0012356178089044448,-9.823615667833918,7.003501750875438e-05,-7.003501750875438e-05,0.0,0,0,0,43.75
2063670,0.024697348674337163,0.0012356178089044448,-9.813615667833918,7.003501750875438e-05,-7.003501750875438e-05,0.0,0,0,0,43.56
2063680,0.014697348674337155,0.0012356178089044448,-9.813615667833918,7.003501750875438e-05,-7.003501750875438e-05,0.0,0,0,0,43.87
2063690,0.014697348674337155,0.0012356178089044448,-9.803615667833919,7.003501750875438e-05,-7.003501750875438e-05,0.0,0,0,0,43.81
2063702,0.024697348674337163,0.0012356178089044448,-9.813615667833918,7.003501750875438e-05,-7.003501750875438e-05,0.0,0,0,0,44.0
2063710,0.03469734867433716,0.0012356178089044448,-9.813615667833918,7.003501750875438e-05,-7.003501750875438e-05,0.0,0,0,0,43.87
2063720,0.03469734867433716,0.011235617808904447,-9.813615667833918,7.003501750875438e-05,-7.003501750875438e-05,0.0,0,0,0,43.81
2063730,0.03469734867433716,0.0012356178089044448,-9.813615667833918,7.003501750875438e-05,-7.003501750875438e-05,0.0,0,0,0,43.81
2063740,0.04469734867433715,0.0012356178089044448,-9.803615667833919,7.003501750875438e-05,-7.003501750875438e-05,0.0,0,0,0,43.81
2063750,0.03469734867433716,0.0012356178089044448,-9.803615667833919,7.003501750875438e-05,-7.003501750875438e-05,0.0,0,0,0,43.81
2063760,0.03469734867433716,0.0012356178089044448,-9.803615667833919,7.003501750875438e-05,-7.003501750875438e-05,0.0,0,0,0,43.75
2063770,0.024697348674337163,0.0012356178089044448,-9.813615667833918,7.003501750875438e-05,-7.003501750875438e-05,0.0,0,0,0,43.81
2063780,0.024697348674337163,0.0012356178089044448,-9.803615667833919,7.003501750875438e-05,-7.003501750875438e-05,0.0,0,0,0,43.56
2063790,0.024697348674337163,0.0012356178089044448,-9.813615667833918,7.003501750875438e-05,-7.003501750875438e-05,0.0,0,0,0,43.81
2063800,0.024697348674337163,0.0012356178089044448,-9.813615667833918,7.003501750875438e-05,-7.003501750875438e-05,0.0,0,0,0,43.81
2063810,0.03469734867433716,0.0012356178089044448,-9.803615667833919,7.003501750875438e-05,-7.003501750875438e-05,0.0,0,0,0,43.75
2063820,0.03469734867433716,0.0012356178089044448,-9.803615667833919,7.003501750875438e-05,-7.003501750875438e-05,0.0,0,0,0,43.81
2063830,0.03469734867433716,0.0012356178089044448,-9.813615667833918,7.003501750875438e-05,-7.003501750875438e-05,0.0,0,0,0,43.75
2063840,0.024697348674337163,-0.008764382191095554,-9.813615667833918,7.003501750875438e-05,-7.003501750875438e-05,0.0,0,0,0,43.87
2063850,0.024697348674337163,0.0012356178089044448,-9.813615667833918,7.003501750875438e-05,-7.003501750875438e-05,0.0,0,0,0,43.75
2063860,0.024697348674337163,0.0012356178089044448,-9.813615667833918,7.003501750875438e-05,-7.003501750875438e-05,0.0,0,0,0,43.81
2063870,0.024697348674337163,0.0012356178089044448,-9.813615667833918,7.003501750875438e-05,-7.003501750875438e-05,0.0,0,0,0,43.81
2063880,0.024697348674337163,0.0012356178089044448,-9.813615667833918,7.003501750875438e-05,-7.003501750875438e-05,0.0,0,0,0,43.81
2063890,0.024697348674337163,0.0012356178089044448,-9.823615667833918,7.003501750875438e-05,-7.003501750875438e-05,0.0,0,0,0,43.81
2063902,0.03469734867433716,0.011235617808904447,-9.813615667833918,7.003501750875438e-05,-7.003501750875438e-05,0.0,0,0,0,43.81
2063910,0.03469734867433716,0.011235617808904447,-9.813615667833918,7.003501750875438e-05,-7.003501750875438e-05,0.0,0,0,0,44.06
2063920,0.03469734867433716,0.011235617808904447,-9.823615667833918,7.003501750875438e-05,-7.003501750875438e-05,0.0,0,0,0,43.68
2063930,0.03469734867433716,0.011235617808904447,-9.813615667833918,7.003501750875438e-05,-7.003501750875438e-05,0.0,0,0,0,44.0
2063940,0.024697348674337163,0.0012356178089044448,-9.813615667833918,7.003501750875438e-05,-7.003501750875438e-05,0.0,0,0,0,43.87
2063952,0.024697348674337163,0.0012356178089044448,-9.813615667833918,7.003501750875438e-05,-7.003501750875438e-05,0.0,0,0,0,43.62
2063960,0.03469734867433716,0.0012356178089044448,-9.813615667833918,7.003501750875438e-05,-7.003501750875438e-05,0.0,0,0,0,43.81
2063970,0.03469734867433716,0.0012356178089044448,-9.813615667833918,7.003501750875438e-05,-7.003501750875438e-05,0.0,0,0,0,43.75
2063980,0.03469734867433716,0.0012356178089044448,-9.813615667833918,7.003501750875438e-05,-7.003501750875438e-05,0.0,0,0,0,43.75
2063990,0.03469734867433716,0.0012356178089044448,-9.803615667833919,7.003501750875438e-05,-7.003501750875438e-05,0.0,0,0,0,43.93
2064002,0.024697348674337163,-0.008764382191095554,-9.803615667833919,7.003501750875438e-05,-7.003501750875438e-05,0.0,0,0,0,43.93
2064010,0.03469734867433716,0.0012356178089044448,-9.813615667833918,7.003501750875438e-05,-7.003501750875438e-05,0.0,0,0,0,43.62
2064020,0.03469734867433716,0.0012356178089044448,-9.803615667833919,7.003501750875438e-05,-7.003501750875438e-05,0.0,0,0,0,43.75
2064030,0.03469734867433716,0.0012356178089044448,-9.803615667833919,7.003501750875438e-05,-7.003501750875438e-05,0.0,0,0,0,43.87
2064040,0.03469734867433716,0.011235617808904447,-9.803615667833919,7.003501750875438e-05,-7.003501750875438e-05,0.0,0,0,0,43.87
2064050,0.03469734867433716,0.0012356178089044448,-9.813615667833918,7.003501750875438e-05,-7.003501750875438e-05,0.0,0,0,0,43.93
2064060,0.03469734867433716,0.0012356178089044448,-9.823615667833918,7.003501750875438e-05,-7.003501750875438e-05,0.0,0,0,0,44.06
2064070,0.024697348674337163,0.0012356178089044448,-9.813615667833918,7.003501750875438e-05,-7.003501750875438e-05,0.0,0,0,0,43.81
2064080,0.024697348674337163,0.0012356178089044448,-9.813615667833918,7.003501750875438e-05,-7.003501750875438e-05,0.0,0,0,0,43.81
2064090,0.024697348674337163,0.011235617808904447,-9.803615667833919,7.003501750875438e-05,-7.003501750875438e-05,0.0,0,0,0,43.68
2064100,0.024697348674337163,0.0012356178089044448,-9.803615667833919,7.003501750875438e-05,-7.003501750875438e-05,0.0,0,0,0,43.56
2064110,0.03469734867433716,0.0012356178089044448,-9.813615667833918,7.003501750875438e-05,-7.003501750875438e-05,0.0,0,0,0,43.87
2064120,0.03469734867433716,0.011235617808904447,-9.793615667833919,7.003501750875438e-05,-7.003501750875438e-05,0.0,0,0,0,43.56
2064130,0.024697348674337163,0.0012356178089044448,-9.803615667833919,7.003501750875438e-05,-7.003501750875438e-05,0.0,0,0,0,43.68
2064140,0.024697348674337163,0.0012356178089044448,-9.803615667833919,7.003501750875438e-05,-7.003501750875438e-05,0.0,0,0,0,43.75
2064150,0.05469734867433716,0.011235617808904447,-9.773615667833917,0.010070035017508755,-0.10007003501750876,0.0,0,0,0,43.81
2064160,0.04469734867433715,0.04123561780890445,-9.763615667833918,0.11007003501750875,-0.21007003501750873,0.0,0,0,0,43.75
2064170,0.014697348674337155,-0.008764382191095554,-9.823615667833918,0.26007003501750875,-0.24007003501750873,0.0,0,0,0,43.87
2064180,-0.0053026513256628355,-0.008764382191095554,-9.853615667833918,0.25007003501750874,-0.12007003501750875,0.0,0,0,0,43.93
2064190,0.0046973486743371595,-0.028764382191095554,-9.853615667833918,0.17007003501750875,-7.003501750875438e-05,0.0,0,0,0,43.87
2064202,0.024697348674337163,-0.008764382191095554,-9.813615667833918,0.010070035017508755,0.08992996498249124,0.0,0,0,0,44.0
2064212,0.024697348674337163,0.011235617808904447,-9.803615667833919,0.020070035017508755,0.06992996498249125,0.0,0,0,0,43.87
2064220,0.014697348674337155,0.0012356178089044448,-9.813615667833918,0.06007003501750875,0.05992996498249124,0.0,0,0,0,43.93
2064230,-0.0053026513256628355,0.0012356178089044448,-9.833615667833918,0.020070035017508755,0.11992996498249124,0.01,0,0,0,43.75
2064240,0.03469734867433716,0.04123561780890445,-9.813615667833918,0.17007003501750875,0.13992996498249127,0.04,0,0,0,43.87
2064250,0.04469734867433715,-0.018764382191095552,-9.813615667833918,0.27007003501750876,0.08992996498249124,0.04,0,0,0,43.87
2064260,0.03469734867433716,-0.05876438219109555,-9.813615667833918,0.12007003501750875,0.07992996498249125,0.02,0,0,0,43.75
2064270,0.03469734867433716,-0.05876438219109555,-9.803615667833919,-0.11992996498249124,0.08992996498249124,0.0,0,0,0,43.56
2064280,0.04469734867433715,-0.018764382191095552,-9.803615667833919,-0.23992996498249125,0.06992996498249125,0.0,0,0,0,44.06
2064290,0.04469734867433715,0.011235617808904447,-9.803615667833919,-0.17992996498249125,0.019929964982491246,0.0,0,0,0,43.87
2064300,0.03469734867433716,0.0012356178089044448,-9.823615667833918,-0.12992996498249126,-7.003501750875438e-05,0.0,0,0,0,43.75
2064312,0.03469734867433716,0.0012356178089044448,-9.813615667833918,-0.08992996498249124,-0.020070035017508755,0.0,0,0,0,43.68
2064320,0.03469734867433716,0.0012356178089044448,-9.803615667833919,-0.04992996498249125,-0.040070035017508755,0.0,0,0,0,44.06
2064330,0.03469734867433716,0.0012356178089044448,-9.813615667833918,0.010070035017508755,-0.05007003501750876,0.0,0,0,0,43.75
2064340,0.024697348674337163,-0.008764382191095554,-9.813615667833918,0.07007003501750876,-0.040070035017508755,0.0,0,0,0,43.87
2064350,0.024697348674337163,-0.008764382191095554,-9.823615667833918,0.07007003501750876,-0.05007003501750876,0.0,0,0,0,43.81
2064360,0.03469734867433716,-0.008764382191095554,-9.823615667833918,0.030070035017508753,-0.07007003501750876,0.0,0,0,0,43.81
2064370,0.03469734867433716,0.0012356178089044448,-9.813615667833918,0.040070035017508755,-0.09007003501750875,0.0,0,0,0,43.93
2064380,0.04469734867433715,0.0012356178089044448,-9.803615667833919,0.040070035017508755,-0.13007003501750874,0.0,0,0,0,43.75
2064390,0.03469734867433716,-0.008764382191095554,-9.813615667833918,0.020070035017508755,-0.16007003501750874,0.0,0,0,0,43.75
2064402,0.024697348674337163,-0.008764382191095554,-9.823615667833918,-0.019929964982491246,-0.20007003501750875,0.0,0,0,0,43.56
2064410,0.0046973486743371595,0.0012356178089044448,-9.823615667833918,-0.039929964982491246,-0.19007003501750874,0.0,0,0,0,43.81
2064420,0.0046973486743371595,0.0012356178089044448,-9.823615667833918,-0.039929964982491246,-0.15007003501750873,0.0,0,0,0,43.68
2064430,0.0046973486743371595,-0.008764382191095554,-9.823615667833918,-0.05992996498249124,-0.08007003501750876,0.0,0,0,0,43.68
2064440,0.014697348674337155,-0.008764382191095554,-9.813615667833918,-0.039929964982491246,-0.040070035017508755,0.0,0,0,0,43.93
2064450,0.014697348674337155,-0.008764382191095554,-9.803615667833919,-0.029929964982491244,-0.040070035017508755,0.0,0,0,0,43.87
2064460,0.014697348674337155,0.0012356178089044448,-9.813615667833918,-0.04992996498249125,-0.05007003501750876,0.0,0,0,0,43.75
2064470,0.014697348674337155,0.0012356178089044448,-9.803615667833919,-0.029929964982491244,-0.05007003501750876,0.0,0,0,0,44.0
2064480,0.014697348674337155,-0.008764382191095554,-9.813615667833918,7.003501750875438e-05,-0.020070035017508755,0.0,0,0,0,44.0
2064490,0.014697348674337155,-0.008764382191095554,-9.823615667833918,7.003501750875438e-05,-0.010070035017508755,0.0,0,0,0,44.0
2064502,0.014697348674337155,0.0012356178089044448,-9.823615667833918,7.003501750875438e-05,-0.010070035017508755,0.0,0,0,0,43.81
2064510,0.014697348674337155,0.0012356178089044448,-9.823615667833918,7.003501750875438e-05,-7.003501750875438e-05,0.0,0,0,0,44.06
2064520,0.024697348674337163,-0.008764382191095554,-9.823615667833918,7.003501750875438e-05,-7.003501750875438e-05,0.0,0,0,0,43.75
2064530,0.014697348674337155,0.011235617808904447,-9.813615667833918,-0.009929964982491246,-7.003501750875438e-05,0.0,0,0,0,43.75
2064540,0.024697348674337163,0.0012356178089044448,-9.803615667833919,-0.009929964982491246,-7.003501750875438e-05,0.0,0,0,0,43.87
2064550,0.024697348674337163,-0.008764382191095554,-9.813615667833918,-0.019929964982491246,-7.003501750875438e-05,0.0,0,0,0,43.81
2064560,0.024697348674337163,-0.008764382191095554,-9.803615667833919,-0.019929964982491246,0.009929964982491246,0.0,0,0,0,43.81
2064570,0.024697348674337163,-0.008764382191095554,-9.803615667833919,7.003501750875438e-05,-7.003501750875438e-05,0.0,0,0,0,44.0
2064580,0.014697348674337155,-0.008764382191095554,-9.813615667833918,0.020070035017508755,-0.010070035017508755,0.0,0,0,0,43.87
2064590,0.014697348674337155,0.0012356178089044448,-9.813615667833918,0.020070035017508755,-7.003501750875438e-05,0.0,0,0,0,43.87
2064600,0.0046973486743371595,0.0012356178089044448,-9.803615667833919,0.030070035017508753,0.009929964982491246,0.0,0,0,0,43.93
2064610,-0.0053026513256628355,-0.008764382191095554,-9.813615667833918,0.010070035017508755,0.029929964982491244,0.0,0,0,0,43.93
2064620,-1.195302651325663,-0.038764382191095556,-9.783615667833919,0.030070035017508753,-0.06007003501750875,-0.1,0,0,0,43.87
2064630,-1.4653026513256628,0.031235617808904444,-9.803615667833919,0.11007003501750875,-0.20007003501750875,-0.2,0,0,0,43.75
2064640,-0.3653026513256628,0.10123561780890444,-9.833615667833918,0.11007003501750875,-0.18007003501750873,0.23,0,0,0,43.75
2064650,-0.09530265132566285,0.13123561780890444,-9.823615667833918,0.10007003501750876,-0.13007003501750874,1.08,0,0,0,43.75
2064660,-0.26530265132566283,0.13123561780890444,-9.813615667833918,0.10007003501750876,-0.09007003501750875,2.03,0,0,0,43.93
2064670,-0.5253026513256629,0.06123561780890444,-9.823615667833918,0.09007003501750875,-0.08007003501750876,2.68,0,0,0,44.0
2064680,-0.7053026513256628,0.04123561780890445,-9.833615667833918,0.07007003501750876,-0.06007003501750875,2.81,0,0,0,43.75
2064690,-0.7953026513256628,0.011235617808904447,-9.823615667833918,0.05007003501750876,-0.040070035017508755,2.55,0,0,0,43.87
2064700,-0.9353026513256628,0.011235617808904447,-9.823615667833918,0.040070035017508755,-0.040070035017508755,2.06,0,0,0,44.0
2064710,-1.2353026513256629,0.2612356178089044,-9.803615667833919,0.08007003501750876,-0.030070035017508753,1.81,0,0,0,43.75
2064720,-1.2653026513256629,0.6212356178089045,-9.813615667833918,0.14007003501750875,-0.030070035017508753,2.0,0,0,0,43.75
2064730,-1.2053026513256628,0.9112356178089044,-9.813615667833918,0.19007003501750874,-0.020070035017508755,2.85,0,0,0,43.75
2064740,-1.325302651325663,1.0912356178089047,-9.823615667833918,0.18007003501750873,-0.020070035017508755,4.07,0,0,0,43.81
2064750,-1.365302651325663,0.6712356178089044,-9.833615667833918,0.07007003501750876,-0.030070035017508753,4.78,0,0,0,43.62
2064760,-1.2353026513256629,0.02123561780890445,-9.823615667833918,7.003501750875438e-05,-0.05007003501750876,4.37,0,0,0,43.81
2064770,-1.145302651325663,-0.43876438219109554,-9.833615667833918,-0.039929964982491246,-0.07007003501750876,3.67,0,0,0,43.87
2064780,-1.2053026513256628,-0.7887643821910956,-9.843615667833918,-0.12992996498249126,-0.07007003501750876,3.0,0,0,0,43.87
2064790,-1.115302651325663,-0.9287643821910956,-9.833615667833918,-0.18992996498249126,-0.05007003501750876,1.88,0,0,0,43.81
2064800,-1.065302651325663,-0.8587643821910955,-9.833615667833918,-0.21992996498249126,-0.010070035017508755,0.21,0,0,0,43.75
2064810,-1.195302651325663,-0.5587643821910956,-9.833615667833918,-0.23992996498249125,0.009929964982491246,-0.73,0,0,0,43.87
2064820,-1.085302651325663,-0.12876438219109557,-9.813615667833918,-0.20992996498249125,0.019929964982491246,-0.48,0,0,0,43.87
2064830,-0.6753026513256628,0.18123561780890443,-9.793615667833919,-0.13992996498249127,-7.003501750875438e-05,0.31,0,0,0,43.81
2064840,-0.45530265132566283,0.24123561780890446,-9.793615667833919,-0.05992996498249124,-0.09007003501750875,1.08,0,0,0,43.62
2064850,-0.3853026513256628,0.11123561780890445,-9.803615667833919,-0.019929964982491246,-0.13007003501750874,1.32,0,0,0,44.06
2064860,-0.08530265132566284,-0.15876438219109557,-9.843615667833918,-0.019929964982491246,-0.09007003501750875,1.17,0,0,0,43.68
2064870,0.12469734867433717,-0.5687643821910956,-9.833615667833918,-0.06992996498249125,-0.040070035017508755,0.83,0,0,0,43.75
2064880,0.18469734867433718,-0.5987643821910955,-9.813615667833918,-0.039929964982491246,-0.020070035017508755,0.53,0,0,0,43.62
2064890,0.34469734867433716,-0.4287643821910956,-9.813615667833918,0.030070035017508753,0.04992996498249125,0.5,0,0,0,44.0
2064900,0.40469734867433715,-0.4187643821910956,-9.803615667833919,0.030070035017508753,0.10992996498249125,0.52,0,0,0,43.75
2064910,0.42469734867433717,-0.4887643821910956,-9.813615667833918,0.020070035017508755,0.09992996498249125,0.38,0,0,0,43.56
2064920,0.4446973486743372,-0.5487643821910956,-9.813615667833918,0.020070035017508755,0.06992996498249125,-0.04,0,0,0,43.87
2064930,0.23469734867433717,-0.6387643821910955,-9.823615667833918,0.010070035017508755,0.039929964982491246,-0.8,0,0,0,43.87
2064940,-0.03530265132566284,-0.5187643821910956,-9.813615667833918,0.05007003501750876,0.009929964982491246,-1.74,0,0,0,43.87
2064952,-0.16530265132566285,-0.3687643821910956,-9.803615667833919,0.15007003501750873,-0.10007003501750876,-2.64,0,0,0,43.56
2064960,-0.14530265132566283,-0.33876438219109556,-9.813615667833918,0.18007003501750873,-0.14007003501750875,-3.19,0,0,0,43.75
2064970,-0.11530265132566284,-0.11876438219109556,-9.833615667833918,0.20007003501750875,-0.10007003501750876,-4.15,0,0,0,43.87
2064980,0.29469734867433717,0.23123561780890445,-9.833615667833918,0.16007003501750874,-0.010070035017508755,-5.61,0,0,0,43.81
2064990,0.7146973486743372,0.5612356178089044,-9.813615667833918,0.12007003501750875,0.06992996498249125,-6.18,0,0,0,43.87
2065000,0.6546973486743372,0.6812356178089044,-9.793615667833919,0.12007003501750875,0.15992996498249126,-4.58,0,0,0,44.0
2065012,0.4946973486743371,0.48123561780890445,-9.793615667833919,0.15007003501750873,0.19992996498249127,-1.05,0,0,0,43.62
2065020,0.35469734867433717,0.22123561780890444,-9.803615667833919,0.09007003501750875,0.17992996498249125,0.0,0,0,0,44.06
2065030,0.08469734867433716,0.10123561780890444,-9.813615667833918,0.010070035017508755,0.10992996498249125,0.13,0,0,0,43.87
2065040,-0.07530265132566284,0.15123561780890443,-9.803615667833919,-0.039929964982491246,0.009929964982491246,-0.11,0,0,0,43.81
2065050,-0.05530265132566284,0.09123561780890443,-9.813615667833918,-0.04992996498249125,-0.05007003501750876,-0.21,0,0,0,43.5
2065060,0.17469734867433717,0.14123561780890445,-9.823615667833918,-0.039929964982491246,-0.020070035017508755,-0.08,0,0,0,44.06
2065070,0.34469734867433716,0.16123561780890444,-9.813615667833918,-0.019929964982491246,0.019929964982491246,0.6,0,0,0,43.75
2065080,0.3646973486743372,0.14123561780890445,-9.813615667833918,7.003501750875438e-05,-7.003501750875438e-05,1.32,0,0,0,43.75
2065090,0.35469734867433717,0.24123561780890446,-9.813615667833918,7.003501750875438e-05,-0.030070035017508753,1.63,0,0,0,43.81
2065102,0.39469734867433715,0.29123561780890445,-9.813615667833918,7.003501750875438e-05,-0.06007003501750875,1.76,0,0,0,43.93
2065110,0.34469734867433716,0.19123561780890444,-9.813615667833918,-0.029929964982491244,-0.06007003501750875,1.79,0,0,0,43.75
2065120,0.23469734867433717,0.0012356178089044448,-9.813615667833918,-0.05992996498249124,-0.05007003501750876,1.74,0,0,0,43.75
2065130,0.09469734867433717,-0.11876438219109556,-9.803615667833919,-0.08992996498249124,-0.030070035017508753,1.3,0,0,0,43.68
2065140,0.05469734867433716,-0.17876438219109556,-9.803615667833919,-0.10992996498249125,0.009929964982491246,0.51,0,0,0,43.87
2065150,0.08469734867433716,-0.07876438219109555,-9.813615667833918,-0.12992996498249126,0.06992996498249125,-0.25,0,0,0,43.87
2065162,-0.015302651325662844,0.05123561780890445,-9.813615667833918,-0.09992996498249125,0.08992996498249124,-0.56,0,0,0,43.87
2065170,-0.07530265132566284,0.17123561780890445,-9.803615667833919,-0.07992996498249125,0.08992996498249124,-0.56,0,0,0,43.75
2065180,-0.13530265132566283,0.3212356178089044,-9.803615667833919,-0.06992996498249125,0.08992996498249124,-0.34,0,0,0,43.93
2065190,-0.27530265132566284,0.24123561780890446,-9.813615667833918,-0.06992996498249125,0.09992996498249125,-0.05,0,0,0,43.87
2065200,-0.3853026513256628,0.05123561780890445,-9.803615667833919,-0.05992996498249124,0.07992996498249125,-0.21,0,0,0,43.87
2065210,-0.4353026513256628,-0.018764382191095552,-9.813615667833918,7.003501750875438e-05,0.06992996498249125,-0.59,0,0,0,43.87
2065220,-0.5153026513256629,0.011235617808904447,-9.813615667833918,0.040070035017508755,0.04992996498249125,-0.79,0,0,0,43.68
2065230,-0.5253026513256629,0.06123561780890444,-9.793615667833919,0.09007003501750875,-7.003501750875438e-05,-0.79,0,0,0,43.75
2065240,-0.35530265132566285,0.13123561780890444,-9.793615667833919,0.18007003501750873,-0.09007003501750875,-0.49,0,0,0,43.93
2065250,-0.05530265132566284,0.15123561780890443,-9.823615667833918,0.20007003501750875,-0.09007003501750875,0.25,0,0,0,43.87
2065262,0.03469734867433716,-0.06876438219109555,-9.823615667833918,0.10007003501750876,0.019929964982491246,1.33,0,0,0,43.87
2065270,-0.09530265132566285,-0.19876438219109557,-9.813615667833918,0.030070035017508753,0.04992996498249125,1.46,0,0,0,43.75
2065280,-0.26530265132566283,-0.18876438219109556,-9.813615667833918,7.003501750875438e-05,0.009929964982491246,1.09,0,0,0,43.93
2065290,-0.3753026513256628,-0.12876438219109557,-9.833615667833918,-0.029929964982491244,-7.003501750875438e-05,0.65,0,0,0,43.75
2065300,-0.4353026513256628,-0.11876438219109556,-9.813615667833918,-0.019929964982491246,-7.003501750875438e-05,0.3,0,0,0,43.81
2065310,-0.5153026513256629,-0.06876438219109555,-9.803615667833919,0.010070035017508755,0.029929964982491244,0.24,0,0,0,43.62
2065320,-0.6853026513256628,-0.028764382191095554,-9.803615667833919,0.07007003501750876,0.029929964982491244,0.61,0,0,0,43.93
2065330,-0.6753026513256628,0.031235617808904444,-9.813615667833918,0.09007003501750875,0.019929964982491246,0.7,0,0,0,43.93
2065340,-0.5753026513256628,0.24123561780890446,-9.813615667833918,0.10007003501750876,0.05992996498249124,0.17,0,0,0,43.68
2065350,-0.5153026513256629,0.5212356178089045,-9.803615667833919,0.09007003501750875,0.07992996498249125,-0.63,0,0,0,43.75
2065362,-0.33530265132566284,0.6412356178089045,-9.803615667833919,0.040070035017508755,0.07992996498249125,-1.83,0,0,0,43.87
2065370,-0.12530265132566284,0.5912356178089044,-9.813615667833918,0.040070035017508755,0.039929964982491246,-2.28,0,0,0,43.5
2065380,0.08469734867433716,0.35123561780890444,-9.823615667833918,0.040070035017508755,-0.010070035017508755,-1.81,0,0,0,43.87
2065390,0.18469734867433718,-0.028764382191095554,-9.823615667833918,0.010070035017508755,-0.030070035017508753,-0.55,0,0,0,43.87
2065400,0.13469734867433714,-0.3087643821910956,-9.823615667833918,7.003501750875438e-05,-0.07007003501750876,0.78,0,0,0,43.81
2065412,-0.03530265132566284,-0.47876438219109557,-9.823615667833918,-0.07992996498249125,-0.12007003501750875,2.08,0,0,0,43.81
2065420,0.014697348674337155,-0.4887643821910956,-9.833615667833918,-0.15992996498249126,-0.12007003501750875,2.15,0,0,0,43.81
2065430,0.27469734867433715,-0.40876438219109557,-9.823615667833918,-0.22992996498249127,-0.11007003501750875,1.86,0,0,0,43.87
2065440,0.4846973486743372,-0.3587643821910956,-9.823615667833918,-0.25992996498249127,-0.09007003501750875,1.78,0,0,0,43.81
2065450,0.6046973486743372,-0.31876438219109554,-9.803615667833919,-0.21992996498249126,-0.06007003501750875,1.67,0,0,0,43.87
2065460,0.7446973486743371,-0.22876438219109557,-9.803615667833919,-0.16992996498249127,-0.05007003501750876,1.49,0,0,0,43.62
2065470,0.7846973486743372,-0.21876438219109556,-9.803615667833919,-0.11992996498249124,-0.020070035017508755,1.4,0,0,0,44.0
2065480,0.6346973486743371,-0.23876438219109555,-9.793615667833919,-0.08992996498249124,-7.003501750875438e-05,1.13,0,0,0,43.75
2065490,0.4546973486743372,-0.13876438219109555,-9.783615667833919,7.003501750875438e-05,-0.030070035017508753,0.66,0,0,0,43.81
2065500,0.28469734867433716,0.011235617808904447,-9.783615667833919,0.07007003501750876,-0.08007003501750876,0.49,0,0,0,43.75
2065510,0.11469734867433716,0.031235617808904444,-9.813615667833918,0.11007003501750875,-0.09007003501750875,0.66,0,0,0,43.87
2065520,-0.04530265132566284,-0.028764382191095554,-9.823615667833918,0.09007003501750875,-0.06007003501750875,1.05,0,0,0,43.93
2065530,-0.30530265132566287,-0.19876438219109557,-9.823615667833918,0.05007003501750876,-0.05007003501750876,1.79,0,0,0,43.87
2065540,-0.5453026513256628,-0.40876438219109557,-9.813615667833918,0.030070035017508753,-0.040070035017508755,1.89,0,0,0,43.81
2065552,-0.4953026513256628,-0.5487643821910956,-9.813615667833918,0.010070035017508755,-0.05007003501750876,0.65,0,0,0,43.87
2065560,-0.3753026513256628,-0.46876438219109556,-9.813615667833918,0.010070035017508755,-0.05007003501750876,-0.08,0,0,0,43.81
2065570,-0.10530265132566284,-0.24876438219109556,-9.823615667833918,0.010070035017508755,-0.040070035017508755,-0.49,0,0,0,43.87
2065580,0.12469734867433717,-0.038764382191095556,-9.823615667833918,-0.019929964982491246,-0.020070035017508755,-0.67,0,0,0,43.87
2065590,0.22469734867433716,0.19123561780890444,-9.823615667833918,7.003501750875438e-05,-0.030070035017508753,-0.82,0,0,0,43.5
2065602,0.3746973486743372,0.31123561780890446,-9.803615667833919,7.003501750875438e-05,-0.08007003501750876,-0.93,0,0,0,43.75
2065610,0.5646973486743372,0.27123561780890443,-9.803615667833919,7.003501750875438e-05,-0.09007003501750875,-0.92,0,0,0,44.0
2065620,0.6246973486743371,0.14123561780890445,-9.813615667833918,-0.009929964982491246,-0.040070035017508755,-0.59,0,0,0,43.87
2065630,0.4946973486743371,0.011235617808904447,-9.803615667833919,-0.019929964982491246,0.019929964982491246,-0.28,0,0,0,43.75
2065640,0.39469734867433715,-0.028764382191095554,-9.793615667833919,7.003501750875438e-05,0.019929964982491246,-0.56,0,0,0,43.87
2065650,0.35469734867433717,0.0012356178089044448,-9.803615667833919,0.020070035017508755,-7.003501750875438e-05,-0.95,0,0,0,43.81
2065660,0.2646973486743372,0.09123561780890443,-9.813615667833918,0.020070035017508755,-0.020070035017508755,-0.95,0,0,0,43.68
2065670,0.14469734867433715,0.17123561780890445,-9.813615667833918,0.010070035017508755,-7.003501750875438e-05,-0.64,0,0,0,43.62
2065680,0.08469734867433716,0.05123561780890445,-9.813615667833918,-0.009929964982491246,0.009929964982491246,-0.44,0,0,0,43.81
2065690,0.08469734867433716,-0.12876438219109557,-9.813615667833918,-0.029929964982491244,0.009929964982491246,-0.83,0,0,0,43.93
2065700,0.15469734867433715,-0.14876438219109556,-9.823615667833918,-0.039929964982491246,0.009929964982491246,-1.43,0,0,0,43.75
2065710,0.24469734867433718,-0.09876438219109557,-9.823615667833918,-0.05992996498249124,-7.003501750875438e-05,-1.55,0,0,0,43.81
2065720,0.3246973486743372,-0.06876438219109555,-9.813615667833918,-0.06992996498249125,-0.030070035017508753,-1.24,0,0,0,43.75
2065730,0.35469734867433717,-0.06876438219109555,-9.813615667833918,-0.05992996498249124,-0.030070035017508753,-0.66,0,0,0,43.75
2065740,0.28469734867433716,-0.09876438219109557,-9.813615667833918,-0.05992996498249124,-0.030070035017508753,0.14,0,0,0,43.75
2065750,0.12469734867433717,-0.08876438219109556,-9.803615667833919,-0.04992996498249125,-0.020070035017508755,0.5,0,0,0,43.75
2065760,0.014697348674337155,0.02123561780890445,-9.813615667833918,-0.019929964982491246,-0.020070035017508755,0.34,0,0,0,43.87
2065770,0.014697348674337155,0.22123561780890444,-9.813615667833918,7.003501750875438e-05,-0.010070035017508755,0.23,0,0,0,43.87
2065780,-0.015302651325662844,0.28123561780890444,-9.813615667833918,-0.019929964982491246,-7.003501750875438e-05,0.39,0,0,0,44.06
2065790,-0.03530265132566284,0.21123561780890443,-9.803615667833919,-0.039929964982491246,0.009929964982491246,0.42,0,0,0,43.81
2065802,-0.0053026513256628355,0.17123561780890445,-9.813615667833918,-0.019929964982491246,0.019929964982491246,0.14,0,0,0,43.81
2065810,0.024697348674337163,0.12123561780890443,-9.813615667833918,-0.019929964982491246,0.029929964982491244,0.08,0,0,0,43.87
2065820,-0.04530265132566284,-0.028764382191095554,-9.813615667833918,-0.029929964982491244,0.04992996498249125,0.11,0,0,0,43.87
2065830,-0.14530265132566283,-0.21876438219109556,-9.813615667833918,7.003501750875438e-05,0.06992996498249125,-0.22,0,0,0,43.81
2065840,-0.26530265132566283,-0.27876438219109556,-9.813615667833918,0.010070035017508755,0.06992996498249125,-0.83,0,0,0,43.87
2065850,-0.3153026513256628,-0.11876438219109556,-9.803615667833919,0.040070035017508755,0.039929964982491246,-1.17,0,0,0,43.68
2065862,-0.28530265132566285,0.18123561780890443,-9.803615667833919,0.11007003501750875,-7.003501750875438e-05,-1.14,0,0,0,44.06
2065870,-0.22530265132566285,0.3312356178089044,-9.813615667833918,0.13007003501750874,-0.010070035017508755,-0.91,0,0,0,43.75
2065880,-0.12530265132566284,0.4412356178089044,-9.823615667833918,0.13007003501750874,-0.020070035017508755,-0.28,0,0,0,43.87
2065890,-0.06530265132566285,0.30123561780890445,-9.823615667833918,0.09007003501750875,-0.030070035017508753,0.36,0,0,0,43.75
2065900,0.04469734867433715,0.10123561780890444,-9.823615667833918,0.030070035017508753,-0.030070035017508753,0.57,0,0,0,43.75
2065910,0.17469734867433717,-0.008764382191095554,-9.823615667833918,7.003501750875438e-05,-0.020070035017508755,0.87,0,0,0,43.75
2065920,0.2046973486743372,-0.018764382191095552,-9.813615667833918,-0.019929964982491246,-0.010070035017508755,1.46,0,0,0,43.81
2065930,0.22469734867433716,-0.028764382191095554,-9.813615667833918,-0.04992996498249125,-7.003501750875438e-05,1.84,0,0,0,43.81
2065940,0.23469734867433717,-0.038764382191095556,-9.813615667833918,-0.06992996498249125,-7.003501750875438e-05,1.93,0,0,0,43.68
2065952,0.21469734867433715,0.04123561780890445,-9.813615667833918,-0.05992996498249124,-0.010070035017508755,2.21,0,0,0,43.68
2065960,0.2046973486743372,0.02123561780890445,-9.813615667833918,-0.07992996498249125,-7.003501750875438e-05,2.38,0,0,0,43.68
2065970,0.2646973486743372,-0.13876438219109555,-9.803615667833919,-0.11992996498249124,0.029929964982491244,2.23,0,0,0,44.0
2065980,0.21469734867433715,-0.23876438219109555,-9.803615667833919,-0.12992996498249126,0.029929964982491244,1.92,0,0,0,43.81
2065990,0.09469734867433717,-0.24876438219109556,-9.813615667833918,-0.10992996498249125,0.009929964982491246,1.51,0,0,0,43.81
2066000,0.024697348674337163,-0.23876438219109555,-9.803615667833919,-0.05992996498249124,-0.030070035017508753,0.8,0,0,0,43.87
2066010,-0.07530265132566284,-0.26876438219109555,-9.813615667833918,-0.039929964982491246,-0.030070035017508753,0.2,0,0,0,43.87
2066020,-0.23530265132566286,-0.20876438219109555,-9.813615667833918,-0.009929964982491246,-7.003501750875438e-05,-0.09,0,0,0,43.87
2066030,-0.21530265132566284,0.06123561780890444,-9.813615667833918,0.020070035017508755,0.029929964982491244,-0.14,0,0,0,43.75
2066040,-0.08530265132566284,0.3812356178089044,-9.803615667833919,0.05007003501750876,0.07992996498249125,-0.02,0,0,0,43.62
2066050,0.09469734867433717,0.5612356178089044,-9.813615667833918,0.06007003501750875,0.09992996498249125,0.39,0,0,0,43.75
2066060,0.24469734867433718,0.4412356178089044,-9.803615667833919,0.040070035017508755,0.06992996498249125,0.9,0,0,0,43.81
2066070,0.35469734867433717,0.27123561780890443,-9.803615667833919,0.030070035017508753,0.029929964982491244,1.16,0,0,0,43.81
2066080,0.40469734867433715,0.10123561780890444,-9.813615667833918,0.05007003501750876,-7.003501750875438e-05,1.43,0,0,0,43.87
2066090,0.4646973486743372,-0.09876438219109557,-9.813615667833918,0.06007003501750875,-0.05007003501750876,1.46,0,0,0,43.81
2066100,0.5146973486743371,-0.21876438219109556,-9.813615667833918,0.05007003501750876,-0.06007003501750875,1.06,0,0,0,43.81
2066112,0.4646973486743372,-0.37876438219109554,-9.813615667833918,7.003501750875438e-05,-0.010070035017508755,0.21,0,0,0,43.93
2066120,0.34469734867433716,-0.4187643821910956,-9.823615667833918,-0.029929964982491244,-7.003501750875438e-05,-0.63,0,0,0,43.87
2066130,0.24469734867433718,-0.27876438219109556,-9.813615667833918,-0.019929964982491246,0.009929964982491246,-1.59,0,0,0,44.0
2066140,0.24469734867433718,-0.07876438219109555,-9.813615667833918,7.003501750875438e-05,0.009929964982491246,-2.0,0,0,0,43.81
2066150,0.27469734867433715,0.02123561780890445,-9.803615667833919,0.020070035017508755,0.029929964982491244,-1.88,0,0,0,43.75
2066160,0.17469734867433717,0.17123561780890445,-9.813615667833918,0.06007003501750875,0.039929964982491246,-1.23,0,0,0,43.81
2066170,-0.04530265132566284,0.36123561780890445,-9.813615667833918,0.07007003501750876,0.019929964982491246,-0.42,0,0,0,43.75
2066180,-0.16530265132566285,0.5212356178089045,-9.823615667833918,0.05007003501750876,-7.003501750875438e-05,0.1,0,0,0,43.81
2066190,-0.10530265132566284,0.5212356178089045,-9.813615667833918,7.003501750875438e-05,-7.003501750875438e-05,0.67,0,0,0,43.68
2066200,0.0046973486743371595,0.30123561780890445,-9.813615667833918,-0.06992996498249125,0.009929964982491246,1.22,0,0,0,43.87
2066210,0.09469734867433717,0.05123561780890445,-9.813615667833918,-0.11992996498249124,0.019929964982491246,1.57,0,0,0,43.87
2066220,0.21469734867433715,-0.07876438219109555,-9.813615667833918,-0.12992996498249126,0.009929964982491246,1.79,0,0,0,43.75
2066230,0.33469734867433715,-0.17876438219109556,-9.803615667833919,-0.11992996498249124,-7.003501750875438e-05,1.96,0,0,0,43.87
2066240,0.39469734867433715,-0.2987643821910956,-9.803615667833919,-0.10992996498249125,-0.020070035017508755,1.94,0,0,0,43.75
2066250,0.4346973486743372,-0.2987643821910956,-9.813615667833918,-0.07992996498249125,-0.020070035017508755,1.75,0,0,0,43.87
2066260,0.4646973486743372,-0.19876438219109557,-9.813615667833918,-0.04992996498249125,-0.010070035017508755,1.6,0,0,0,43.87
2066270,0.4746973486743372,-0.08876438219109556,-9.813615667833918,7.003501750875438e-05,-0.010070035017508755,1.55,0,0,0,43.81
2066280,0.4846973486743372,-0.028764382191095554,-9.803615667833919,0.020070035017508755,-0.020070035017508755,1.67,0,0,0,43.87
2066290,0.39469734867433715,-0.028764382191095554,-9.803615667833919,0.030070035017508753,-0.030070035017508753,1.74,0,0,0,44.0
2066300,0.3046973486743372,-0.028764382191095554,-9.813615667833918,0.020070035017508755,-0.040070035017508755,1.4,0,0,0,43.81
2066310,0.3046973486743372,-0.028764382191095554,-9.813615667833918,0.010070035017508755,-0.05007003501750876,0.82,0,0,0,43.87
2066320,0.39469734867433715,-0.11876438219109556,-9.803615667833919,-0.009929964982491246,-0.040070035017508755,0.28,0,0,0,44.0
2066330,0.5146973486743371,-0.25876438219109554,-9.803615667833919,-0.039929964982491246,-0.020070035017508755,-0.12,0,0,0,43.81
2066340,0.5646973486743372,-0.31876438219109554,-9.803615667833919,-0.04992996498249125,-7.003501750875438e-05,-0.2,0,0,0,43.93
2066352,0.4746973486743372,-0.34876438219109557,-9.803615667833919,-0.05992996498249124,0.029929964982491244,-0.05,0,0,0,44.06
2066360,0.34469734867433716,-0.21876438219109556,-9.813615667833918,-0.019929964982491246,0.04992996498249125,0.29,0,0,0,43.75
2066370,0.10469734867433715,0.04123561780890445,-9.813615667833918,0.06007003501750875,0.04992996498249125,1.03,0,0,0,43.75
2066380,0.14469734867433715,0.2612356178089044,-9.813615667833918,0.13007003501750874,0.039929964982491246,1.55,0,0,0,43.75
2066390,0.4946973486743371,0.3912356178089044,-9.813615667833918,0.18007003501750873,0.019929964982491246,1.67,0,0,0,43.87
2066400,0.8946973486743371,0.28123561780890444,-9.803615667833919,0.17007003501750875,0.009929964982491246,1.67,0,0,0,43.81
2066410,1.054697348674337,0.031235617808904444,-9.813615667833918,0.14007003501750875,0.019929964982491246,1.46,0,0,0,43.75
2066420,0.8946973486743371,-0.12876438219109557,-9.813615667833918,0.09007003501750875,0.019929964982491246,1.08,0,0,0,43.93
2066430,0.5746973486743372,-0.21876438219109556,-9.823615667833918,0.020070035017508755,0.019929964982491246,0.45,0,0,0,44.0
2066440,0.16469734867433716,-0.14876438219109556,-9.813615667833918,7.003501750875438e-05,0.019929964982491246,-0.18,0,0,0,43.81
2066450,-0.06530265132566285,-0.06876438219109555,-9.813615667833918,7.003501750875438e-05,0.019929964982491246,-0.7,0,0,0,43.62
2066460,-0.20530265132566283,-0.038764382191095556,-9.823615667833918,7.003501750875438e-05,0.019929964982491246,-1.08,0,0,0,43.87
2066470,-0.32530265132566283,0.0012356178089044448,-9.813615667833918,0.040070035017508755,0.019929964982491246,-1.39,0,0,0,43.93
2066480,-0.17530265132566286,0.05123561780890445,-9.803615667833919,0.09007003501750875,0.009929964982491246,-1.65,0,0,0,44.12
2066490,0.14469734867433715,0.08123561780890445,-9.793615667833919,0.14007003501750875,0.009929964982491246,-1.71,0,0,0,43.62
2066502,0.28469734867433716,0.07123561780890444,-9.803615667833919,0.17007003501750875,0.019929964982491246,-1.4,0,0,0,43.75
2066510,0.14469734867433715,0.08123561780890445,-9.813615667833918,0.16007003501750874,0.009929964982491246,-1.19,0,0,0,43.81
2066520,-0.12530265132566284,0.031235617808904444,-9.823615667833918,0.09007003501750875,-7.003501750875438e-05,-1.07,0,0,0,43.87
2066530,-0.32530265132566283,0.0012356178089044448,-9.823615667833918,-0.009929964982491246,-7.003501750875438e-05,-1.16,0,0,0,43.87
2066540,-0.39530265132566283,-0.008764382191095554,-9.813615667833918,-0.07992996498249125,-0.010070035017508755,-1.25,0,0,0,43.93
2066552,-0.12530265132566284,-0.06876438219109555,-9.813615667833918,-0.11992996498249124,-0.020070035017508755,-1.24,0,0,0,43.75
2066560,0.18469734867433718,-0.11876438219109556,-9.813615667833918,-0.12992996498249126,-0.020070035017508755,-1.11,0,0,0,43.75
2066570,0.5246973486743371,-0.12876438219109557,-9.823615667833918,-0.11992996498249124,-0.020070035017508755,-0.78,0,0,0,43.87
2066580,0.8246973486743372,-0.10876438219109555,-9.813615667833918,-0.07992996498249125,-0.020070035017508755,-0.42,0,0,0,43.81
2066590,1.094697348674337,-0.09876438219109557,-9.813615667833918,-0.029929964982491244,-0.010070035017508755,-0.18,0,0,0,43.87
2066600,0.6446973486743371,-0.05876438219109555,-9.803615667833919,-0.029929964982491244,-0.030070035017508753,-0.02,0,0,0,43.62
2066612,0.07469734867433715,-0.018764382191095552,-9.813615667833918,-0.019929964982491246,-0.05007003501750876,0.01,0,0,0,43.93
2066620,-0.04530265132566284,-0.018764382191095552,-9.803615667833919,-0.009929964982491246,-0.040070035017508755,0.0,0,0,0,43.81
2066630,-0.04530265132566284,-0.028764382191095554,-9.823615667833918,-0.07992996498249125,-0.030070035017508753,0.0,0,0,0,43.75
2066640,-0.02530265132566284,-0.038764382191095556,-9.853615667833918,-0.2799299649824913,-0.010070035017508755,0.0,0,0,0,43.75
2066650,-0.015302651325662844,-0.018764382191095552,-9.843615667833918,-0.40992996498249124,0.019929964982491246,0.0,0,0,0,43.75
2066660,-0.015302651325662844,-0.008764382191095554,-9.823615667833918,-0.40992996498249124,0.039929964982491246,0.0,0,0,0,43.87
2066670,-0.09530265132566285,-0.018764382191095552,-9.793615667833919,-0.3899299649824913,0.029929964982491244,0.02,0,0,0,44.0
2066680,-0.4353026513256628,-0.10876438219109555,-9.783615667833919,-0.18992996498249126,-0.020070035017508755,-0.03,0,0,0,43.75
2066690,-0.28530265132566285,-0.028764382191095554,-9.813615667833918,-0.039929964982491246,-0.030070035017508753,-0.23,0,0,0,43.62
2066700,-0.07530265132566284,0.04123561780890445,-9.823615667833918,-0.009929964982491246,-7.003501750875438e-05,-0.46,0,0,0,43.87
2066710,-0.22530265132566285,-0.008764382191095554,-9.843615667833918,-0.04992996498249125,0.05992996498249124,-0.7,0,0,0,43.81
2066720,-0.45530265132566283,-0.47876438219109557,-9.843615667833918,-0.3899299649824913,0.18992996498249126,-1.24,0,0,0,43.68
2066730,-0.8353026513256628,-0.22876438219109557,-9.833615667833918,-0.31992996498249127,0.35992996498249125,-1.72,0,0,0,43.87
2066740,-1.0053026513256629,0.46123561780890443,-9.803615667833919,-0.09992996498249125,0.47992996498249124,-0.66,0,0,0,43.68
2066750,0.16469734867433716,0.7112356178089044,-9.623615667833919,0.040070035017508755,-0.06007003501750875,1.9,0,0,0,43.81
2066760,1.844697348674337,0.18123561780890443,-9.803615667833919,0.13007003501750874,-0.49007003501750873,3.68,0,0,0,43.75
2066770,1.344697348674337,-0.18876438219109556,-9.823615667833918,0.13007003501750874,-0.44007003501750874,2.33,0,0,0,43.56
2066780,0.3146973486743372,-0.12876438219109557,-9.823615667833918,0.030070035017508753,-0.14007003501750875,0.6,0,0,0,43.81
2066790,-0.07530265132566284,-0.028764382191095554,-9.813615667833918,7.003501750875438e-05,-0.010070035017508755,-0.07,0,0,0,43.75
2066802,-0.07530265132566284,0.011235617808904447,-9.803615667833919,7.003501750875438e-05,0.009929964982491246,-0.13,0,0,0,43.93
2066810,-0.02530265132566284,0.02123561780890445,-9.813615667833918,7.003501750875438e-05,0.009929964982491246,-0.05,0,0,0,43.81
2066820,0.0046973486743371595,0.02123561780890445,-9.813615667833918,7.003501750875438e-05,-7.003501750875438e-05,0.0,0,0,0,43.87
2066830,0.0046973486743371595,0.011235617808904447,-9.813615667833918,7.003501750875438e-05,-7.003501750875438e-05,0.01,0,0,0,43.87
2066840,0.0046973486743371595,0.0012356178089044448,-9.803615667833919,7.003501750875438e-05,-7.003501750875438e-05,0.0,0,0,0,43.87
2066850,0.0046973486743371595,0.0012356178089044448,-9.803615667833919,7.003501750875438e-05,-7.003501750875438e-05,0.0,0,0,0,43.81
2066862,0.0046973486743371595,0.0012356178089044448,-9.813615667833918,7.003501750875438e-05,-7.003501750875438e-05,0.0,0,0,0,43.87
2066870,-0.0053026513256628355,0.011235617808904447,-9.813615667833918,7.003501750875438e-05,-7.003501750875438e-05,0.0,0,0,0,43.87
2066880,-0.0053026513256628355,0.011235617808904447,-9.813615667833918,7.003501750875438e-05,-7.003501750875438e-05,0.0,0,0,0,43.87
2066890,-0.0053026513256628355,0.0012356178089044448,-9.813615667833918,7.003501750875438e-05,-7.003501750875438e-05,0.0,0,0,0,43.87
2066900,-0.0053026513256628355,0.0012356178089044448,-9.813615667833918,7.003501750875438e-05,-7.003501750875438e-05,0.0,0,0,0,43.87
2066910,0.0046973486743371595,0.011235617808904447,-9.813615667833918,7.003501750875438e-05,-7.003501750875438e-05,0.0,0,0,0,43.93
2066920,0.0046973486743371595,0.02123561780890445,-9.813615667833918,7.003501750875438e-05,-7.003501750875438e-05,0.0,0,0,0,43.75
2066930,0.0046973486743371595,0.011235617808904447,-9.813615667833918,7.003501750875438e-05,-7.003501750875438e-05,0.0,0,0,0,43.81
2066940,-0.0053026513256628355,0.0012356178089044448,-9.813615667833918,7.003501750875438e-05,-7.003501750875438e-05,0.0,0,0,0,43.75
2066950,0.0046973486743371595,0.0012356178089044448,-9.813615667833918,7.003501750875438e-05,-7.003501750875438e-05,0.0,0,0,0,43.68
2066960,0.0046973486743371595,0.011235617808904447,-9.813615667833918,7.003501750875438e-05,-7.003501750875438e-05,0.0,0,0,0,44.0
2066970,-0.0053026513256628355,0.0012356178089044448,-9.813615667833918,7.003501750875438e-05,-7.003501750875438e-05,0.0,0,0,0,43.87
2066980,-0.0053026513256628355,0.0012356178089044448,-9.813615667833918,7.003501750875438e-05,-7.003501750875438e-05,0.0,0,0,0,43.56
2066990,0.0046973486743371595,0.0012356178089044448,-9.813615667833918,7.003501750875438e-05,-7.003501750875438e-05,0.0,0,0,0,43.93
2067000,0.0046973486743371595,0.0012356178089044448,-9.813615667833918,7.003501750875438e-05,-7.003501750875438e-05,0.0,0,0,0,43.93
2067010,0.0046973486743371595,0.0012356178089044448,-9.813615667833918,7.003501750875438e-05,-7.003501750875438e-05,0.0,0,0,0,43.87
2067020,-0.0053026513256628355,0.0012356178089044448,-9.813615667833918,7.003501750875438e-05,-7.003501750875438e-05,0.0,0,0,0,43.81
2067030,-0.0053026513256628355,0.0012356178089044448,-9.813615667833918,7.003501750875438e-05,-7.003501750875438e-05,0.0,0,0,0,43.81
2067040,-0.0053026513256628355,0.0012356178089044448,-9.823615667833918,7.003501750875438e-05,-7.003501750875438e-05,0.0,0,0,0,43.75
2067050,-0.0053026513256628355,0.0012356178089044448,-9.813615667833918,7.003501750875438e-05,-7.003501750875438e-05,0.0,0,0,0,43.81
2067060,0.0046973486743371595,0.011235617808904447,-9.813615667833918,7.003501750875438e-05,-7.003501750875438e-05,0.0,0,0,0,43.75
2067070,0.0046973486743371595,0.0012356178089044448,-9.813615667833918,7.003501750875438e-05,-7.003501750875438e-05,0.0,0,0,0,43.62
2067080,0.0046973486743371595,0.0012356178089044448,-9.813615667833918,7.003501750875438e-05,-7.003501750875438e-05,0.0,0,0,0,43.87
2067090,-0.0053026513256628355,0.0012356178089044448,-9.823615667833918,7.003501750875438e-05,-7.003501750875438e-05,0.0,0,0,0,43.87
2067100,-0.0053026513256628355,0.0012356178089044448,-9.813615667833918,7.003501750875438e-05,-7.003501750875438e-05,0.0,0,0,0,43.81
2067110,-0.015302651325662844,0.0012356178089044448,-9.813615667833918,7.003501750875438e-05,-7.003501750875438e-05,0.0,0,0,0,43.75
2067120,-0.015302651325662844,0.0012356178089044448,-9.813615667833918,7.003501750875438e-05,-7.003501750875438e-05,0.0,0,0,0,43.75
2067130,-0.0053026513256628355,0.0012356178089044448,-9.803615667833919,7.003501750875438e-05,-7.003501750875438e-05,0.0,0,0,0,43.75
2067140,0.0046973486743371595,0.0012356178089044448,-9.803615667833919,7.003501750875438e-05,-7.003501750875438e-05,0.0,0,0,0,43.75
2067150,0.0046973486743371595,0.0012356178089044448,-9.813615667833918,7.003501750875438e-05,-7.003501750875438e-05,0.0,0,0,0,43.81
2067160,0.0046973486743371595,0.0012356178089044448,-9.813615667833918,7.003501750875438e-05,-7.003501750875438e-05,0.0,0,0,0,43.87
2067170,0.0046973486743371595,0.0012356178089044448,-9.813615667833918,7.003501750875438e-05,-7.003501750875438e-05,0.0,0,0,0,44.0
2067180,-0.0053026513256628355,0.011235617808904447,-9.813615667833918,7.003501750875438e-05,-7.003501750875438e-05,0.0,0,0,0,43.75
2067190,0.0046973486743371595,0.011235617808904447,-9.813615667833918,7.003501750875438e-05,-7.003501750875438e-05,0.0,0,0,0,44.06
2067200,0.0046973486743371595,0.02123561780890445,-9.803615667833919,7.003501750875438e-05,-7.003501750875438e-05,0.0,0,0,0,43.87
2067210,-0.0053026513256628355,0.011235617808904447,-9.813615667833918,7.003501750875438e-05,-7.003501750875438e-05,0.0,0,0,0,43.81
2067220,-0.0053026513256628355,0.0012356178089044448,-9.813615667833918,7.003501750875438e-05,-7.003501750875438e-05,0.0,0,0,0,43.81
2067230,0.0046973486743371595,0.0012356178089044448,-9.813615667833918,7.003501750875438e-05,-7.003501750875438e-05,0.0,0,0,0,43.75
2067240,-0.0053026513256628355,0.0012356178089044448,-9.803615667833919,7.003501750875438e-05,-7.003501750875438e-05,0.0,0,0,0,43.75
2067250,-0.0053026513256628355,0.0012356178089044448,-9.803615667833919,7.003501750875438e-05,-7.003501750875438e-05,0.0,0,0,0,43.81
2067260,-0.0053026513256628355,0.011235617808904447,-9.803615667833919,7.003501750875438e-05,-7.003501750875438e-05,0.0,0,0,0,43.75
2067270,-0.0053026513256628355,0.011235617808904447,-9.813615667833918,7.003501750875438e-05,-7.003501750875438e-05,0.0,0,0,0,43.81
2067280,-0.0053026513256628355,0.011235617808904447,-9.813615667833918,7.003501750875438e-05,-7.003501750875438e-05,0.0,0,0,0,43.87
2067290,0.0046973486743371595,0.011235617808904447,-9.813615667833918,7.003501750875438e-05,-7.003501750875438e-05,0.0,0,0,0,43.75
2067300,0.0046973486743371595,0.0012356178089044448,-9.813615667833918,7.003501750875438e-05,-7.003501750875438e-05,0.0,0,0,0,43.87
2067310,0.0046973486743371595,0.0012356178089044448,-9.803615667833919,7.003501750875438e-05,-7.003501750875438e-05,0.0,0,0,0,43.75
2067320,0.0046973486743371595,0.011235617808904447,-9.813615667833918,7.003501750875438e-05,-7.003501750875438e-05,0.0,0,0,0,43.81
2067330,-0.015302651325662844,0.0012356178089044448,-9.813615667833918,7.003501750875438e-05,-7.003501750875438e-05,0.0,0,0,0,43.87
2067340,-0.0053026513256628355,0.011235617808904447,-9.813615667833918,7.003501750875438e-05,-7.003501750875438e-05,0.0,0,0,0,44.18
2067350,0.0046973486743371595,0.0012356178089044448,-9.813615667833918,7.003501750875438e-05,-7.003501750875438e-05,0.0,0,0,0,43.87
2067360,0.0046973486743371595,0.0012356178089044448,-9.813615667833918,7.003501750875438e-05,-7.003501750875438e-05,0.0,0,0,0,43.75
2067370,0.0046973486743371595,0.011235617808904447,-9.813615667833918,7.003501750875438e-05,-7.003501750875438e-05,0.0,0,0,0,43.87
2067380,0.0046973486743371595,0.011235617808904447,-9.813615667833918,7.003501750875438e-05,-7.003501750875438e-05,0.0,0,0,0,43.93
2067390,0.0046973486743371595,0.011235617808904447,-9.803615667833919,7.003501750875438e-05,-7.003501750875438e-05,0.0,0,0,0,43.93
2067400,-0.0053026513256628355,0.011235617808904447,-9.813615667833918,7.003501750875438e-05,-7.003501750875438e-05,0.0,0,0,0,44.06
2067410,-0.015302651325662844,0.011235617808904447,-9.813615667833918,7.003501750875438e-05,-7.003501750875438e-05,0.0,0,0,0,43.81
2067420,-0.0053026513256628355,0.011235617808904447,-9.813615667833918,7.003501750875438e-05,-7.003501750875438e-05,0.0,0,0,0,43.93
2067430,-0.0053026513256628355,0.0012356178089044448,-9.813615667833918,7.003501750875438e-05,-7.003501750875438e-05,0.0,0,0,0,43.87
2067440,0.0046973486743371595,0.0012356178089044448,-9.813615667833918,7.003501750875438e-05,-7.003501750875438e-05,0.0,0,0,0,43.87
2067450,0.0046973486743371595,0.0012356178089044448,-9.803615667833919,7.003501750875438e-05,-7.003501750875438e-05,0.0,0,0,0,44.0
2067460,0.0046973486743371595,0.0012356178089044448,-9.803615667833919,7.003501750875438e-05,-7.003501750875438e-05,0.0,0,0,0,43.87
2067470,-0.0053026513256628355,0.0012356178089044448,-9.813615667833918,7.003501750875438e-05,-7.003501750875438e-05,0.0,0,0,0,43.87
2067480,-0.0053026513256628355,0.0012356178089044448,-9.813615667833918,7.003501750875438e-05,-7.003501750875438e-05,0.0,0,0,0,43.93
2067490,-0.0053026513256628355,0.0012356178089044448,-9.813615667833918,7.003501750875438e-05,-7.003501750875438e-05,0.0,0,0,0,43.75
2067500,0.0046973486743371595,0.011235617808904447,-9.813615667833918,7.003501750875438e-05,-7.003501750875438e-05,0.0,0,0,0,43.68
2067510,-0.0053026513256628355,0.011235617808904447,-9.813615667833918,7.003501750875438e-05,-7.003501750875438e-05,0.0,0,0,0,44.06
2067520,-0.0053026513256628355,0.011235617808904447,-9.803615667833919,7.003501750875438e-05,-7.003501750875438e-05,0.0,0,0,0,43.81
2067530,-0.0053026513256628355,0.02123561780890445,-9.813615667833918,7.003501750875438e-05,-7.003501750875438e-05,0.0,0,0,0,43.87
2067540,0.0046973486743371595,0.011235617808904447,-9.823615667833918,7.003501750875438e-05,-7.003501750875438e-05,0.0,0,0,0,43.87
2067550,0.0046973486743371595,0.0012356178089044448,-9.813615667833918,7.003501750875438e-05,-7.003501750875438e-05,0.0,0,0,0,43.81
2067560,0.0046973486743371595,0.0012356178089044448,-9.813615667833918,7.003501750875438e-05,-7.003501750875438e-05,0.0,0,0,0,43.62
2067570,0.0046973486743371595,0.0012356178089044448,-9.813615667833918,7.003501750875438e-05,-7.003501750875438e-05,0.0,0,0,0,43.81
2067580,0.0046973486743371595,0.0012356178089044448,-9.813615667833918,7.003501750875438e-05,-7.003501750875438e-05,0.0,0,0,0,43.87
2067590,-0.0053026513256628355,0.0012356178089044448,-9.813615667833918,7.003501750875438e-05,-7.003501750875438e-05,0.0,0,0,0,43.75
2067600,-0.0053026513256628355,0.011235617808904447,-9.823615667833918,7.003501750875438e-05,-7.003501750875438e-05,0.0,0,0,0,43.62
2067610,-0.015302651325662844,0.02123561780890445,-9.813615667833918,7.003501750875438e-05,-7.003501750875438e-05,0.0,0,0,0,44.0
2067620,-0.0053026513256628355,0.02123561780890445,-9.813615667833918,7.003501750875438e-05,-7.003501750875438e-05,0.0,0,0,0,43.75
2067630,0.0046973486743371595,0.011235617808904447,-9.803615667833919,7.003501750875438e-05,-7.003501750875438e-05,0.0,0,0,0,43.87
2067640,0.0046973486743371595,0.0012356178089044448,-9.803615667833919,7.003501750875438e-05,-7.003501750875438e-05,0.0,0,0,0,43.62
2067650,0.0046973486743371595,0.0012356178089044448,-9.813615667833918,7.003501750875438e-05,-7.003501750875438e-05,0.0,0,0,0,43.87
2067660,-0.0053026513256628355,0.0012356178089044448,-9.813615667833918,7.003501750875438e-05,-7.003501750875438e-05,0.0,0,0,0,43.75
2067670,-0.0053026513256628355,0.0012356178089044448,-9.803615667833919,7.003501750875438e-05,-7.003501750875438e-05,0.0,0,0,0,43.87
2067680,-0.0053026513256628355,0.0012356178089044448,-9.813615667833918,7.003501750875438e-05,-7.003501750875438e-05,0.0,0,0,0,43.81
2067690,-0.0053026513256628355,0.0012356178089044448,-9.803615667833919,7.003501750875438e-05,-7.003501750875438e-05,0.0,0,0,0,43.68
2067700,-0.0053026513256628355,0.0012356178089044448,-9.813615667833918,7.003501750875438e-05,-7.003501750875438e-05,0.0,0,0,0,43.81
2067710,0.0046973486743371595,0.011235617808904447,-9.803615667833919,7.003501750875438e-05,-7.003501750875438e-05,0.0,0,0,0,43.68
2067720,0.0046973486743371595,0.0012356178089044448,-9.813615667833918,7.003501750875438e-05,-7.003501750875438e-05,0.0,0,0,0,43.81
2067730,0.0046973486743371595,0.011235617808904447,-9.813615667833918,7.003501750875438e-05,-7.003501750875438e-05,0.0,0,0,0,43.75
2067740,0.0046973486743371595,0.0012356178089044448,-9.813615667833918,7.003501750875438e-05,-7.003501750875438e-05,0.0,0,0,0,43.81
2067750,0.0046973486743371595,0.011235617808904447,-9.813615667833918,7.003501750875438e-05,-7.003501750875438e-05,0.0,0,0,0,43.93
2067762,0.0046973486743371595,0.011235617808904447,-9.813615667833918,7.003501750875438e-05,-7.003501750875438e-05,0.0,0,0,0,43.75
2067770,0.0046973486743371595,0.011235617808904447,-9.813615667833918,7.003501750875438e-05,-7.003501750875438e-05,0.0,0,0,0,43.93
2067780,0.0046973486743371595,0.011235617808904447,-9.813615667833918,7.003501750875438e-05,-7.003501750875438e-05,0.0,0,0,0,43.68
2067790,0.0046973486743371595,0.0012356178089044448,-9.813615667833918,7.003501750875438e-05,-7.003501750875438e-05,0.0,0,0,0,43.75
2067800,0.0046973486743371595,0.011235617808904447,-9.813615667833918,7.003501750875438e-05,-7.003501750875438e-05,0.0,0,0,0,43.87
2067810,-0.0053026513256628355,0.011235617808904447,-9.813615667833918,7.003501750875438e-05,-7.003501750875438e-05,0.0,0,0,0,43.87
2067820,-0.0053026513256628355,0.011235617808904447,-9.813615667833918,7.003501750875438e-05,-7.003501750875438e-05,0.0,0,0,0,43.93
2067830,-0.0053026513256628355,0.011235617808904447,-9.803615667833919,7.003501750875438e-05,-7.003501750875438e-05,0.0,0,0,0,43.68
2067840,0.0046973486743371595,0.011235617808904447,-9.813615667833918,7.003501750875438e-05,-7.003501750875438e-05,0.0,0,0,0,43.68
2067852,-0.0053026513256628355,0.011235617808904447,-9.823615667833918,7.003501750875438e-05,-7.003501750875438e-05,0.0,0,0,0,43.75
