Timestamp,Accelerometer_X,Accelerometer_Y,Accelerometer_Z,Gyroscope_X,Gyroscope_Y,Gyroscope_Z,Magnetometer_X,Magnetometer_Y,Magnetometer_Z,Abs_Pressure,Temperature
2058615354,-0.0032389046230156676,0.0006882473602779493,9.80628572755326,0.0006487865509985278,-0.00019961293519011241,0.0005840061753891349,154648.296875,108009.890625,295966.25,997.5328979492188,45.69755935668945
2058620319,-0.0015424744763214843,-0.0018436461910716906,9.80976187043656,0.00048595286058804787,-0.00035766312002672357,0.0005331986872382403,154648.296875,108009.890625,295966.25,997.5328979492188,45.69755935668945
2058625070,-0.0017895953335602538,-0.0013341382369510546,9.810142386488806,0.0005931460807619879,-0.00014318762195764584,0.0006638839663840771,154648.296875,108009.890625,295966.25,997.5328979492188,45.69755935668945
2058630552,0.0018203301749388917,-0.004970163129281224,9.814652312331091,0.00043694020566142,6.566294969522851e-05,0.0007125419038250983,154648.296875,108009.890625,295966.25,997.5328979492188,45.69755935668945
2058637535,0.0018314315400283082,-0.012121625266980351,9.816765654616248,0.00020639451101266615,0.0002092299989307997,0.0006927635809309722,154648.296875,108009.890625,295966.25,997.5328979492188,45.69755935668945
2058640718,0.0011115638933341249,-0.01059456171841544,9.813737738661658,0.00019667801531574524,0.00016913877762269686,0.0006666689701281429,154648.296875,108009.890625,295966.25,997.5328979492188,45.69755935668945
2058645424,0.003287386747376178,-0.0034409240111820116,9.814073432021033,-0.00029689055666716,0.00026397012034428763,0.00028997017628475434,154648.296875,108009.890625,295966.25,997.5328979492188,45.69755935668945
2058650067,-0.0025585399546463744,0.0029967799559124098,9.807733405165564,-0.0005287176420392206,0.00019909972316233898,-7.532419973963999e-05,154648.296875,108009.890625,295966.25,997.5328979492188,45.69755935668945
2058655259,-0.007783624676688458,0.011679790891695796,9.80817781739701,-0.0009000072561615815,-5.3844566806242886e-05,-0.0002348877928549483,154648.296875,108009.890625,295966.25,997.5328979492188,45.69755935668945
2058660122,-0.010584588495715405,0.008843667782831965,9.805399764113318,-0.0006333875310087314,-0.00016152306424921853,-0.00046716451785565013,154648.296875,108009.890625,295966.25,997.5328979492188,45.69755935668945
2058665293,-0.010940487829669263,0.00793900338559228,9.803444731764685,-0.00038510516900026404,-0.00032767843303738636,-0.0006489511756323337,154648.296875,108009.890625,295966.25,997.5328979492188,45.69755935668945
2058690318,0.0015263228140036805,-0.007711023114632787,9.812337744765173,0.0004049794267917315,5.0762741651828316e-05,8.176735403444025e-05,154648.296875,108009.890625,295966.25,997.5328979492188,45.69755935668945
2058700080,-0.0033322454967339293,-0.007386580131959142,9.819558013014685,0.0003503658270051966,9.671429570878382e-05,0.00013217093922625634,152526.96875,101645.9609375,303466.28125,997.5206909179688,45.702392578125
2058710050,-0.002765457478984143,-0.011347979329537572,9.827033865980994,0.0003510292779242883,6.056259799513492e-05,0.0001710874317116976,152526.96875,101645.9609375,303466.28125,997.5206909179688,45.702392578125
2058720305,0.01126094594813988,-0.003948941849183263,9.821818221144568,-5.8640095842230834e-05,-9.496910870077563e-05,0.00041379492589234716,152526.96875,101645.9609375,303466.28125,997.5206909179688,45.702392578125
2058730481,0.010714773686901782,-0.004619605861615361,9.816365111403357,-3.456786656209431e-05,-0.00013873913057616455,0.0001298831307697982,152526.96875,101645.9609375,303466.28125,997.5206909179688,45.702392578125
2058740709,0.0013002572975318177,-0.0028185397610179797,9.816821921400916,0.000117534173812208,-0.00015704337356148762,0.0002508017173871339,152526.96875,101645.9609375,303466.28125,997.5206909179688,45.702392578125
2058752787,-0.002192470578177716,-0.0019932985529415026,9.819634306959998,-0.00011088691392836324,-7.125005440323156e-05,0.0002474084435865224,152526.96875,101645.9609375,303466.28125,997.5206909179688,45.702392578125
2058760110,-0.0015733794846375243,-0.00338708611578864,9.811905730299841,-7.111577290964476e-05,-9.685953345617754e-05,-4.9212204855081035e-05,152526.96875,101645.9609375,303466.28125,997.5206909179688,45.702392578125
2058770333,-0.004861872045024182,-0.010028846584271611,9.807426322035681,0.00015408738615184858,-0.0003474821926793317,0.0003499846612006367,152526.96875,101645.9609375,303466.28125,997.5206909179688,45.702392578125
2058780279,-0.0023240701832611815,-0.004199236653756322,9.820552695326697,0.0003947289121857176,-0.00030470555729700727,0.0006245420486569346,152526.96875,101645.9609375,303466.28125,997.5206909179688,45.702392578125
2058790302,0.004010435791985248,-0.0021597966775409594,9.819596159987341,7.43692351239298e-05,-0.000408577710273699,0.00025100509495436555,152526.96875,101645.9609375,303466.28125,997.5206909179688,45.702392578125
2058800033,0.00039026573516533214,-0.0037512779459468737,9.805030692152869,0.00012444987693704035,-0.00043051146285145086,-6.395609622509812e-05,146375.15625,96130.515625,296866.28125,997.5103759765625,45.691650390625
2058810048,-0.005908499804957654,-0.0019568428620807543,9.81291185670365,0.0004004866684841255,-0.00024746897479055924,3.656503079886887e-05,146375.15625,96130.515625,296866.28125,997.5103759765625,45.691650390625
2058820312,-0.00438328400038078,-0.0038604289516918078,9.815047133498084,4.5926550926713504e-05,0.00013156204995900617,0.0005772272529914916,146375.15625,96130.515625,296866.28125,997.5103759765625,45.691650390625
2058830543,-0.001920554188712384,0.00107640025763589,9.814115393690955,0.000186365858796824,5.615588516227427e-05,0.001147591724050784,146375.15625,96130.515625,296866.28125,997.5103759765625,45.691650390625
2058840701,0.003939632924572681,0.008276648797083674,9.80647646241654,0.00029618424447796143,-0.0002368532362161438,0.0011191046619690895,146375.15625,96130.515625,296866.28125,997.5103759765625,45.691650390625
2058850113,-0.001954096702559735,0.003060035385180293,9.804142821364294,0.00011785598941748333,-0.0005804323366610568,0.0004985144883297325,146375.15625,96130.515625,296866.28125,997.5103759765625,45.691650390625
2058860054,-0.0025673539914925353,-0.004965119086217107,9.810930121474158,5.0995674216727026e-05,-0.0005595193136250834,-0.0002744438565665915,146375.15625,96130.515625,296866.28125,997.5103759765625,45.691650390625
2058870306,-0.005940321234687115,-0.0029582381472103014,9.815389502577673,0.00012460372524180285,-0.00015586650196930868,-0.0008117341962739884,146375.15625,96130.515625,296866.28125,997.5103759765625,45.691650390625
2058880254,0.0006349875054518922,0.009894631780672847,9.811005461745154,0.0001316594141531533,0.0003054108753567328,-0.0006090006386026799,146375.15625,96130.515625,296866.28125,997.5103759765625,45.691650390625
2058890343,0.0011833651385466798,0.01035926488785821,9.800237525038611,0.00038422906506418086,0.00010168681974753263,-0.00022330133239543658,146375.15625,96130.515625,296866.28125,997.5103759765625,45.691650390625
2058900086,-0.004346634594424512,0.00567547229676324,9.802100050978552,0.00021697579065182082,2.8822833613934842e-05,-0.0004644803297802865,149769.234375,103130.859375,302866.28125,997.512451171875,45.69379806518555
2058910065,-0.008034716693385388,0.002312369622278987,9.811962950758826,0.00013667369855062872,-0.00044702747918202085,-0.00022192841012534347,149769.234375,103130.859375,302866.28125,997.512451171875,45.69379806518555
2058920381,-0.008260402230246808,0.0017499550953395948,9.815114844374548,-0.0005124484843985846,4.821486136640879e-05,0.00010925939980856481,149769.234375,103130.859375,302866.28125,997.512451171875,45.69379806518555
2058930537,-0.0007405982889969603,0.004047341622401057,9.807871687941443,-0.00010573365874045692,0.00040448895806909996,0.00030040634422525173,149769.234375,103130.859375,302866.28125,997.512451171875,45.69379806518555
2058940685,-0.0071899624147255675,-0.0005899742469303026,9.804653037123572,0.0001474663411204966,0.00021937529591375488,-5.684562299089168e-05,149769.234375,103130.859375,302866.28125,997.512451171875,45.69379806518555
2058950065,-0.006546336559279706,-0.0016841516122333422,9.801407683424841,-0.00025855193528735243,-0.0004210640102392296,0.00017465285466946069,149769.234375,103130.859375,302866.28125,997.512451171875,45.69379806518555
2058960076,-0.005677151826842572,0.001530453540373622,9.81333624177445,-3.194628545708723e-06,-0.00021245313773399693,5.092796030416492e-05,149769.234375,103130.859375,302866.28125,997.512451171875,45.69379806518555
2058970351,-0.00031057312868430775,-0.0033752098903171435,9.822315085463416,0.00022458493619303055,0.00014356146034876866,0.00035617751976437277,149769.234375,103130.859375,302866.28125,997.512451171875,45.69379806518555
2058980322,-0.00241528764150932,-0.0018787086233608141,9.814306128554236,0.00034541998026504017,1.8816958530782637e-05,0.00042069515305533415,149769.234375,103130.859375,302866.28125,997.512451171875,45.69379806518555
2058990304,-0.002616870550139691,0.0016985535398014173,9.811910498671423,0.0001360826725136286,-0.00017834944382777912,0.0002936581554725707,149769.234375,103130.859375,302866.28125,997.512451171875,45.69379806518555
2059000061,0.006695259960667346,-0.003995202504109563,9.810770857863318,-2.244479695257894e-05,-9.711043757854504e-05,-2.2299947401421485e-05,144890.21875,101433.8125,302116.28125,997.5173950195312,45.70024490356445
2059010101,0.008739863189236377,-0.008990570925187291,9.808306563429724,-0.00016911621353977524,-0.0003924252007855336,-0.00012706447475161996,144890.21875,101433.8125,302116.28125,997.5173950195312,45.70024490356445
2059020316,0.005710978659168933,-0.0002892241105548754,9.814894545607459,-0.0003498395919745525,-0.00026470411766788465,-3.255477665030059e-05,144890.21875,101433.8125,302116.28125,997.5173950195312,45.70024490356445
2059030509,0.006624121817127918,0.0022754594460018263,9.816198218397986,0.0001500047662989965,-0.00012686534982642633,0.00034552650734744376,144890.21875,101433.8125,302116.28125,997.5173950195312,45.70024490356445
2059040724,0.002571892591492389,-0.004442065976571263,9.818048346571814,0.0003735368416233251,-7.56054150408608e-06,7.273925851527009e-05,144890.21875,101433.8125,302116.28125,997.5173950195312,45.70024490356445
2059050100,-0.004547658709510113,-0.002662867330025853,9.813310492567908,-6.097198204991571e-05,0.0007726536939153214,0.0001951274284996033,144890.21875,101433.8125,302116.28125,997.5173950195312,45.70024490356445
2059060111,-0.005815464405043866,-0.003564417384576024,9.808309424452673,-0.0003384367985130956,0.0007410933255450566,-0.00010272994685843161,144890.21875,101433.8125,302116.28125,997.5173950195312,45.70024490356445
2059070309,-0.0017552258052666442,-0.0038710981831066027,9.812558043532263,-0.0004766355225296428,0.0009240784208522875,-9.596394617488948e-06,144890.21875,101433.8125,302116.28125,997.5173950195312,45.70024490356445
2059080256,0.010649454446808551,-0.006303682945679845,9.820459235243689,0.00017837134216057903,0.0009305857463041086,-0.00023664532952048477,144890.21875,101433.8125,302116.28125,997.5173950195312,45.70024490356445
2059090334,0.004961278887764667,0.0069969519749172315,9.815558302931677,-0.0001155940364991983,3.780950710640746e-05,-0.00040240383847654456,144890.21875,101433.8125,302116.28125,997.5173950195312,45.70024490356445
2059100064,-0.003901842383368756,0.006949551381159602,9.815405715041052,-0.00034276337394879364,1.7679566284618255e-05,-0.00034269619524516755,147860.0625,101433.796875,298666.25,997.51318359375,45.697021484375
2059110131,-0.0005378158368904845,-0.008161321304749669,9.8180416708516,0.00012974451307633727,0.00015310906356169135,-4.646146723339927e-05,147860.0625,101433.796875,298666.25,997.51318359375,45.697021484375
2059120335,-0.00592209711454704,-0.010331206046055974,9.818612921767127,-6.690537996513001e-05,-1.3888951158174399e-05,-0.0001593649135126326,147860.0625,101433.796875,298666.25,997.51318359375,45.697021484375
2059130491,-0.005575294939502026,-0.006064623616646947,9.816003668837439,-0.0001432609235347917,-0.00011757869587747854,-0.000369299570108211,147860.0625,101433.796875,298666.25,997.51318359375,45.697021484375
2059140656,-0.003869089631064679,-0.0027636885866634264,9.824164259962927,4.143430921209813e-05,-0.0004968800124479692,-9.151015134798956e-05,147860.0625,101433.796875,298666.25,997.51318359375,45.697021484375
2059150106,0.001746740790383075,-0.00046572091431540397,9.821065772108923,-0.00016975201581993305,-0.0005368449849775295,-0.00018763510476370004,147860.0625,101433.796875,298666.25,997.51318359375,45.697021484375
2059160053,-0.0012266816177208678,-0.0017883032783977404,9.809939253859412,-7.969550936871371e-05,-0.0003060737574706088,-0.00015791671054708433,147860.0625,101433.796875,298666.25,997.51318359375,45.697021484375
2059170326,-0.0011938320078690307,0.0026150271072872266,9.805308211378943,-0.00035626836618797087,0.000648954440024658,-7.410853637944103e-05,147860.0625,101433.796875,298666.25,997.51318359375,45.697021484375
2059180308,0.004003156574742053,0.0029067024364956007,9.802495825819861,-0.0003807551940848788,0.0008031684780725975,0.0002675917753852845,147860.0625,101433.796875,298666.25,997.51318359375,45.697021484375
2059190355,0.0061106129012267335,0.0075396224632747755,9.800947058730017,6.636791364832618e-05,0.0001469644520718469,0.0003231762207481951,147860.0625,101433.796875,298666.25,997.51318359375,45.697021484375
2059200056,0.012854461225048755,0.0019161328449733839,9.802397597365271,0.0004738496543428192,0.00016534614833651568,0.00030685371578633195,148708.609375,107161.375,297916.28125,997.5260620117188,45.701316833496094
2059210108,0.00842358604289696,-0.0028649047240726366,9.809999335341345,0.0004744940713567922,-0.00017767097533217174,0.0005202423604108334,148708.609375,107161.375,297916.28125,997.5260620117188,45.701316833496094
2059220331,0.0033626897654692872,-0.00011066349596899894,9.822344649367224,-3.7304703466754175e-05,-0.0001930077626602958,0.0005688897040575684,148708.609375,107161.375,297916.28125,997.5260620117188,45.701316833496094
2059230426,-0.0035424338259537475,0.0009508207216747389,9.822096694044959,-0.0002276702682433387,6.0108287201705304e-05,0.0010301149273194313,148708.609375,107161.375,297916.28125,997.5260620117188,45.701316833496094
2059240698,-0.004016991106494214,-0.00047915431113165763,9.81684480958451,-4.899189955943427e-05,0.00025582656299227374,0.00035769001672937876,148708.609375,107161.375,297916.28125,997.5260620117188,45.701316833496094
2059252806,-0.003972742108329083,0.001369155921030818,9.815446723036658,-1.0992905329141535e-05,0.0004247776457341154,-0.0006035757428132057,148708.609375,107161.375,297916.28125,997.5260620117188,45.701316833496094
2059262496,-0.009026977566703107,0.0016961917057521925,9.811593878798377,2.7460647077139698e-05,0.00045171271695287424,-0.0005248666452340841,148708.609375,107161.375,297916.28125,997.5260620117188,45.701316833496094
2059270319,-0.005451838819010998,5.591658501702401e-05,9.812102187209021,-0.00028258276436866426,0.0006474192129680653,-0.00012036265021984593,148708.609375,107161.375,297916.28125,997.5260620117188,45.701316833496094
2059280305,-0.007089044300540234,0.006397418655443965,9.804761755995642,8.886838237919449e-05,0.000280916218529432,0.00025092631088531917,148708.609375,107161.375,297916.28125,997.5260620117188,45.701316833496094
2059290305,-0.0004278080143769042,0.0018390714898594007,9.803063262038123,0.0004010046875624249,-0.00022496816318018836,0.0005247068297952355,148708.609375,107161.375,297916.28125,997.5260620117188,45.701316833496094
2059300067,0.007590208800808643,0.0035376027002819166,9.807736266188513,0.000391257319977347,0.0003477998331654583,0.0004860465819850505,144572.03125,107691.671875,300616.28125,997.524169921875,45.701316833496094
2059310095,0.004287604840771411,0.00691809502987939,9.812138426833044,0.0003708932824952791,0.0005375568513991077,9.576027199122462e-05,144572.03125,107691.671875,300616.28125,997.524169921875,45.701316833496094
2059320323,0.006889660509602283,0.005181096471834956,9.806341994337927,-8.456288226108767e-06,0.00029600339685564387,-0.00043684880389869803,144572.03125,107691.671875,300616.28125,997.524169921875,45.701316833496094
2059330544,0.012083668859974597,0.005519844569254695,9.80912767701615,-0.00010928824052137486,0.0004360903628403087,-0.0006891294792391419,144572.03125,107691.671875,300616.28125,997.524169921875,45.701316833496094
2059340667,0.0024224115929763063,0.0007764249816425428,9.810750830702673,-5.288671967030666e-05,0.00011963927563917815,-0.0009361714068897128,144572.03125,107691.671875,300616.28125,997.524169921875,45.701316833496094
2059350100,-0.00202473565719917,-0.0019671693667880907,9.814892638258826,-0.0001248090804733073,0.00019669304738633792,-0.00038532306231596166,144572.03125,107691.671875,300616.28125,997.524169921875,45.701316833496094
2059360089,7.249847270653087e-05,-0.0011565089449397936,9.807112563185584,-0.0003363579410074016,9.591808766706372e-05,-1.6397108508186756e-05,144572.03125,107691.671875,300616.28125,997.524169921875,45.701316833496094
2059370351,0.0022528587303321107,-0.008178278826188268,9.802700865797888,-0.00035399838382766747,-0.00027017531765161556,1.6423259997681101e-06,144572.03125,107691.671875,300616.28125,997.524169921875,45.701316833496094
2059380251,0.0069912193737189515,-0.00032544138283652213,9.807468283705603,0.00014424237521558836,0.00022189073270417276,-0.00010634678662123053,144572.03125,107691.671875,300616.28125,997.524169921875,45.701316833496094
2059390317,0.014791649433151935,0.009788922943163691,9.804593909315955,0.0001750941853675323,0.00028389989957211065,-0.00032480228716545397,144572.03125,107691.671875,300616.28125,997.524169921875,45.701316833496094
2059402796,0.0071472270808379396,0.00015603748707848641,9.80933462434281,0.00030297157788260675,0.00047540882288010317,0.00013116927269342694,151572.390625,105358.234375,302116.28125,997.5314331054688,45.70615005493164
2059410055,-0.001759748307688977,-0.00040962549300116446,9.808950293593298,0.000500749422615234,0.0008051843257853527,0.00044624668638184076,151572.390625,105358.234375,302116.28125,997.5314331054688,45.70615005493164
2059420296,-0.005875873712523724,0.0013135447874553785,9.808621275954138,0.0005823486760778616,0.0006951957117998738,0.00028714556222743696,151572.390625,105358.234375,302116.28125,997.5314331054688,45.70615005493164
2059430509,-0.005252602843268658,0.001526132203627406,9.8076656942891,0.0003921226059606562,0.00019737999237256582,-0.00027237735363692635,151572.390625,105358.234375,302116.28125,997.5314331054688,45.70615005493164
2059440664,-0.0019214780607064025,-0.0012126416191570177,9.81327806764115,7.064351372497924e-05,-0.0002481355398195098,-2.49439576388396e-05,151572.390625,105358.234375,302116.28125,997.5314331054688,45.70615005493164
2059450111,0.0033989666423957093,-0.0002994835600368395,9.820092070631873,-0.00021132180266470813,-0.00024650913046209616,0.0003284502713844121,151572.390625,105358.234375,302116.28125,997.5314331054688,45.70615005493164
2059460118,0.006896507593170856,-0.005413658939313115,9.81433950715531,-0.0004144959341214707,7.761277147799256e-05,0.0002215044046655238,151572.390625,105358.234375,302116.28125,997.5314331054688,45.70615005493164
2059470302,0.006550502630249713,-0.0029591322168819323,9.811928618483435,-0.00030292558515832924,0.0004352548500755568,-0.00026617946011052126,151572.390625,105358.234375,302116.28125,997.5314331054688,45.70615005493164
2059480264,0.005764853807465289,-0.002037584804009618,9.809807646803748,0.00025023516060861594,-8.833631663585556e-05,-0.0002290926381344035,151572.390625,105358.234375,302116.28125,997.5314331054688,45.70615005493164
2059490352,0.004530493768231128,-0.007469870172452153,9.802869666151892,-1.602079576735548e-05,-0.0002999325582059334,-5.4149797021324156e-05,151572.390625,105358.234375,302116.28125,997.5314331054688,45.70615005493164
2059500106,0.00617049321748421,-0.007902145408105077,9.806961882643591,2.078112418137722e-06,5.402301094725254e-05,-0.00015695485805431974,149451.0625,105570.390625,296266.28125,997.518798828125,45.70293045043945
2059510140,0.007511254998223041,-0.0019223317727558031,9.81166445069779,-0.00014122493597136044,0.0003245712075149407,-0.00017953644007016566,149451.0625,105570.390625,296266.28125,997.518798828125,45.70293045043945
2059520317,0.0032757340393225892,0.005149714626360713,9.8115662222432,4.27382626799664e-05,0.00024133357574462416,5.395558813083324e-05,149451.0625,105570.390625,296266.28125,997.518798828125,45.70293045043945
2059530470,0.003979933115021442,0.0007573738470562086,9.81475340180863,-2.5231037609439112e-05,-8.609152364081246e-05,7.749849149453792e-05,149451.0625,105570.390625,296266.28125,997.518798828125,45.70293045043945
2059540730,-0.0008350642003853576,0.008845634736109553,9.814146864943396,0.00024400142571500338,-0.00030251831712669236,0.00048321803891062146,149451.0625,105570.390625,296266.28125,997.518798828125,45.70293045043945
2059550056,-2.7182845099713027e-05,0.012129224814463435,9.802593100600134,0.00013940978603165432,-0.00037677118170543117,0.00012414357891734097,149451.0625,105570.390625,296266.28125,997.518798828125,45.70293045043945
2059560110,0.003966119738594745,0.004195772089052974,9.808338988356482,9.122734060617233e-05,-5.648314917928082e-05,-8.598899282029026e-05,149451.0625,105570.390625,296266.28125,997.518798828125,45.70293045043945
2059570315,-0.001300904301627423,-0.00014233591408652213,9.814443457655798,7.349059593940922e-05,4.918230907057869e-05,0.00016430530789270404,149451.0625,105570.390625,296266.28125,997.518798828125,45.70293045043945
2059580276,-0.007454458025916363,0.011367537058878718,9.810542929701697,0.00018415361843614675,0.0001330241927498485,4.689910250212404e-05,149451.0625,105570.390625,296266.28125,997.518798828125,45.70293045043945
2059590314,-0.007913614956362988,0.010747946776438533,9.808036673598181,0.00015071610029514714,0.0005473192074568708,-0.00017454355426403355,149451.0625,105570.390625,296266.28125,997.518798828125,45.70293045043945
2059600086,-0.0033337058105309264,0.002245850838709651,9.805243361525427,0.00032177102254315115,0.0009404163799481232,1.148826898628505e-06,151784.5,104297.5859375,298666.25,997.5228881835938,45.69970703125
2059610099,-0.0022669614829857604,0.0010172873511798963,9.816285002760779,0.0006632935881203303,0.0007600610485533018,-0.00015063275665548292,151784.5,104297.5859375,298666.25,997.5228881835938,45.69970703125
2059620312,-0.012684609142764355,-0.006194114707421483,9.815679419569861,0.0006006423543727288,0.0005934919688151915,-9.864783620892569e-05,151784.5,104297.5859375,298666.25,997.5228881835938,45.69970703125
2059630512,-0.009349319485648419,-0.004164598904561223,9.816838133864294,0.0003538019416442404,0.0005508821856928755,3.339934895242903e-05,151784.5,104297.5859375,298666.25,997.5228881835938,45.69970703125
2059640756,0.00034159109212562877,-0.001894280336808385,9.815378058485877,0.00033841430992430843,0.0005759029233595122,0.0005351750119492353,151784.5,104297.5859375,298666.25,997.5228881835938,45.69970703125
2059650124,-0.0007344217576821105,0.0045419558659084425,9.816338408522498,0.0003526373518685142,0.0004860584092093398,5.465837287678722e-05,151784.5,104297.5859375,298666.25,997.5228881835938,45.69970703125
2059660065,-0.0023843304791291015,0.00231226531415063,9.816756117873084,-0.0001378453409710636,0.00014876168434418497,-0.00025073877210766667,151784.5,104297.5859375,298666.25,997.5228881835938,45.69970703125
2059670353,-0.0006511838712532775,0.00142040101437646,9.813425887160193,1.3047149666425072e-05,-6.085356953556192e-05,0.000321813142848754,151784.5,104297.5859375,298666.25,997.5228881835938,45.69970703125
2059680253,0.0027148394308249696,0.004779212154436885,9.811431754164587,0.00010949830154237873,-0.00033180948894007606,0.00024718306352346545,151784.5,104297.5859375,298666.25,997.5228881835938,45.69970703125
2059690319,-0.0034401299037773864,0.005630098260927974,9.817780364088904,0.0003204490101484845,-0.00023403976892589134,-0.000514598784745118,151784.5,104297.5859375,298666.25,997.5228881835938,45.69970703125
2059700134,-0.0064666376986344115,0.00834517923741418,9.817970145277869,0.00037936744480936624,0.00017691636885863255,-0.000684200745551294,145420.546875,108752.3671875,303016.28125,997.5458374023438,45.70884323120117
2059710106,0.0014764262757460817,0.007466144837427913,9.81138883882035,0.0003252012582084427,0.0005237544471164931,-0.0002808608873844206,145420.546875,108752.3671875,303016.28125,997.5458374023438,45.70884323120117
2059720296,0.0039417116365592225,0.007239840902376948,9.808913100294959,0.00018046875335818923,0.0005847337822196771,-0.0002561463220141887,145420.546875,108752.3671875,303016.28125,997.5458374023438,45.70884323120117
2059730563,-0.0003620491900284545,0.0026473328247554884,9.815434325270544,0.00018135953429697848,0.00020228830244739066,-0.0003167006975369587,145420.546875,108752.3671875,303016.28125,997.5458374023438,45.70884323120117
2059740725,-0.003799426702483441,-0.0019363537654392138,9.819229949049841,0.0005014012028983126,-0.00010875499655960602,0.00010135346068031493,145420.546875,108752.3671875,303016.28125,997.5458374023438,45.70884323120117
2059750128,-0.005401539949401166,-0.0044104531630985155,9.808485854201209,0.00023645646139590836,-0.00014565594692251188,0.0003553227984715194,145420.546875,108752.3671875,303016.28125,997.5458374023438,45.70884323120117
2059760106,-0.0006006689348061339,-0.0036934837922565356,9.801712859206091,-9.750679167376063e-05,0.00016302107606313649,0.00011898451751525852,145420.546875,108752.3671875,303016.28125,997.5458374023438,45.70884323120117
2059770286,0.0036486728511016114,-0.005653649590920629,9.800491202406775,-0.00047386646768466734,0.00022358893393536555,-9.883061554015159e-05,145420.546875,108752.3671875,303016.28125,997.5458374023438,45.70884323120117
2059780275,-0.0005516292133171813,0.005486272253084956,9.801385748915564,-0.0005287924388834944,0.0005119136119028319,-0.0002701896769091546,145420.546875,108752.3671875,303016.28125,997.5458374023438,45.70884323120117
2059790415,-0.0068341152348358886,0.00929567960648614,9.815191138319861,-0.00045260955378801726,0.00013557444590694495,0.00021554233947730962,145420.546875,108752.3671875,303016.28125,997.5458374023438,45.70884323120117
2059800089,-0.0016369478382904784,-0.0008877739533893481,9.81763826661576,-7.8157856773322e-06,1.631302502935278e-05,0.0002814419972613395,155284.6875,106100.7109375,302716.28125,997.5272216796875,45.70346450805664
2059810055,0.0008468298635642274,-0.005624689184140386,9.815504897169959,6.211437063718051e-05,0.00014018036945706108,0.0005472276648409606,155284.6875,106100.7109375,302716.28125,997.5272216796875,45.70346450805664
2059820352,0.007126931699291919,-0.000599920772027196,9.80632005982865,0.0005292854373397569,-8.720224222636324e-05,-0.0001086362994707598,155284.6875,106100.7109375,302716.28125,997.5272216796875,45.70346450805664
2059830521,-0.0008787097015221373,0.0024748965874202833,9.802857268385779,0.0001170409348265531,-0.0003724400660721819,-0.000635416264655447,155284.6875,106100.7109375,302716.28125,997.5272216796875,45.70346450805664
2059840695,-0.00040440574072196644,0.004897586978960811,9.803004134230505,0.0004116362586206088,-0.0009035204778192799,-0.0002072414094679117,155284.6875,106100.7109375,302716.28125,997.5272216796875,45.70346450805664
2059852798,0.0037330059728781922,0.002827830590296565,9.809174407057654,4.573892944569536e-05,-0.000321076782071055,0.0004997494802713335,155284.6875,106100.7109375,302716.28125,997.5272216796875,45.70346450805664
2059860140,0.003908780070320819,0.007775582350779353,9.813576567702185,0.00014996282404132954,0.00045592570013829964,0.00029364139166622764,155284.6875,106100.7109375,302716.28125,997.5272216796875,45.70346450805664
2059870326,-0.0024804802217324035,0.007437922038126765,9.813567984633337,-0.0002639289843795558,0.0005205591084668179,-4.242587189460766e-05,155284.6875,106100.7109375,302716.28125,997.5272216796875,45.70346450805664
2059880275,-0.003143909720404889,5.949286370354745e-05,9.8108338003682,0.00014226741110866725,0.0003037292996886884,-0.0004942126865595638,155284.6875,106100.7109375,302716.28125,997.5272216796875,45.70346450805664
2059890312,-0.001813638357146527,-0.004653245233010472,9.806505072646033,0.0005511310053112248,1.1528675444400784e-05,-0.0005012600917931705,155284.6875,106100.7109375,302716.28125,997.5272216796875,45.70346450805664
2059900041,0.0024474157414595826,0.0005409046783931837,9.800824988417517,0.0006276494866756985,0.0002388864238164154,-0.00021020241862666455,147011.53125,105252.1796875,305416.28125,997.5473022460938,45.71152877807617
2059910111,-0.0002453283943970458,0.0010342970266826734,9.800772536330115,-0.00012724192786884659,0.0004917528064688433,4.5890072700189086e-05,147011.53125,105252.1796875,305416.28125,997.5473022460938,45.71152877807617
2059920334,0.001132783146874164,0.003122456349421321,9.8072994833516,-0.00023799461926722132,0.0003429901923518394,-0.00011291973848224745,147011.53125,105252.1796875,305416.28125,997.5473022460938,45.71152877807617
2059930530,0.002666574569718097,0.008893780387926875,9.808266509108435,-0.00018353954804518425,0.0004249822747660567,-0.00015915656646635045,147011.53125,105252.1796875,305416.28125,997.5473022460938,45.71152877807617
2059940677,0.0011750055871169313,0.0050306245460994825,9.80912767701615,-0.0004715124916696658,0.0006823762893909354,-7.76597468453121e-06,147011.53125,105252.1796875,305416.28125,997.5473022460938,45.71152877807617
2059950124,-0.004296790210231091,0.0056168213263042555,9.803364623122107,-0.0004937417063342144,0.0008111396097810705,5.1458333958493205e-05,147011.53125,105252.1796875,305416.28125,997.5473022460938,45.71152877807617
2059960069,0.0017468152961890443,0.006078235782671748,9.806524146132361,-0.00042577081624807023,0.00021952985180539536,-0.0003245285656400084,147011.53125,105252.1796875,305416.28125,997.5473022460938,45.71152877807617
2059970315,0.010502141567246173,-0.0016668439135066881,9.810792792372595,-0.0002730987864492198,2.7264097938290712e-05,-2.782293037549254e-05,147011.53125,105252.1796875,305416.28125,997.5473022460938,45.71152877807617
2059980252,-0.0037029267825920836,0.003154240526247798,9.82191835694779,1.0811015060942851e-05,5.88208865374093e-05,0.0002318911251980752,147011.53125,105252.1796875,305416.28125,997.5473022460938,45.71152877807617
2059990314,-0.014619867650492932,0.0012015253081806287,9.821451056532752,0.0005130493707543502,0.0005995088365161557,2.4064353541092606e-05,147011.53125,105252.1796875,305416.28125,997.5473022460938,45.71152877807617
2060000099,-0.0057321669139702575,-0.004823558054875554,9.812991965346228,0.0005001957513446251,0.000973772105411603,0.00019709647725298408,139480.859375,108752.359375,307516.28125,997.5380859375,45.706687927246094
2060010056,0.0032301439366500123,-0.007289454363297643,9.808529723219763,1.5721369679857277e-05,0.00037087362643794614,0.0005474008326321781,139480.859375,108752.359375,307516.28125,997.5380859375,45.706687927246094
2060020302,0.004838962706104968,-0.007478438340138616,9.806231368117224,-3.0045640626150883e-05,9.457651749833013e-05,0.0005502766403272689,139480.859375,108752.359375,307516.28125,997.5380859375,45.706687927246094
2060030459,0.0003104178629080995,-0.003506027184437932,9.807867873244177,0.00035156016089564956,0.00016567373377617906,0.00038737644766419536,139480.859375,108752.359375,307516.28125,997.5380859375,45.706687927246094
2060040692,0.0023228867373625978,-0.0012372136339656725,9.803126204543005,0.00016233958446497864,0.00030453666904938864,0.00018763461824468675,139480.859375,108752.359375,307516.28125,997.5380859375,45.706687927246094
2060050128,0.002863262446896289,-0.008923500798653783,9.803450453810584,-5.035091747452668e-05,0.00016420199854471712,-0.00015725481304494326,139480.859375,108752.359375,307516.28125,997.5380859375,45.706687927246094
2060060105,0.009654861541763995,0.0036416128054149732,9.803228247694861,-0.00026906039714270436,-0.0001439446707954864,0.00012892270436472598,139480.859375,108752.359375,307516.28125,997.5380859375,45.706687927246094
2060070353,0.004342329355255817,0.0028748586550243482,9.810597289137732,-2.8388381208453096e-05,1.3856558361788362e-06,-0.0005323930995170086,139480.859375,108752.359375,307516.28125,997.5380859375,45.706687927246094
2060080299,0.0008186741194884523,0.002641595877695857,9.808860648207556,-6.984710783620528e-05,0.0002380468146875267,-0.00039233522281088525,139480.859375,108752.359375,307516.28125,997.5380859375,45.706687927246094
2060090397,-0.00605140939138725,-0.004713527880620183,9.805251944594275,0.000341942552738663,-0.00011501211638099057,-4.6787484704196794e-05,139480.859375,108752.359375,307516.28125,997.5380859375,45.706687927246094
2060100037,-0.009815330950244214,-0.013875208817433538,9.809308875136267,5.629696603825153e-05,1.713856973217326e-05,-0.0001882236933548994,151360.265625,105782.5078125,303916.28125,997.5202026367188,45.70615005493164
2060110102,-0.002430457023604657,-0.009176164887856664,9.813931334547888,0.00018432717912907548,0.00043075790081636506,-0.00047912700708062047,151360.265625,105782.5078125,303916.28125,997.5202026367188,45.70615005493164
2060120311,0.006612349899784778,-0.007306121312092961,9.817581999831091,-0.00016188571610876524,0.00024354179977669838,-0.0004761099293924927,151360.265625,105782.5078125,303916.28125,997.5202026367188,45.70615005493164
2060130525,0.0009706510625045045,8.593497424203012e-05,9.810841429762732,-4.767166249842546e-05,-0.0004723586383043091,-0.00038605781761967236,151360.265625,105782.5078125,303916.28125,997.5202026367188,45.70615005493164
2060140608,-0.004717397836669232,0.002325363434840022,9.807291853957068,-0.0005816412697026243,-0.000194214727613167,5.611023201103661e-05,151360.265625,105782.5078125,303916.28125,997.5202026367188,45.70615005493164
2060150123,-0.0024368645229180114,-0.002151921413850011,9.812210906081091,-0.0006070586343707254,0.0006234022082062204,-0.00032274570864197457,151360.265625,105782.5078125,303916.28125,997.5202026367188,45.70615005493164
2060160056,0.0006580097994963868,-0.008981429062794866,9.81440340333451,-0.00030812716725670897,0.00039620647358240086,-0.0003906881788376778,151360.265625,105782.5078125,303916.28125,997.5202026367188,45.70615005493164
2060170328,-0.0032662929572899596,-0.009637355826806249,9.813905585341345,-0.0005180126129129639,8.073658746432039e-05,-0.0004094281352687686,151360.265625,105782.5078125,303916.28125,997.5202026367188,45.70615005493164
2060180322,-0.0019807325281937377,-0.006404705367993535,9.812696326308142,-0.0005591303299592545,-0.00011588237911930782,-1.0564307982946155e-05,151360.265625,105782.5078125,303916.28125,997.5202026367188,45.70615005493164
2060190333,-0.00037373170040443104,-0.011490903817128362,9.816314566664587,0.00016279542320950724,0.00025745316152458536,0.00029231568308509296,151360.265625,105782.5078125,303916.28125,997.5202026367188,45.70615005493164
2060200050,0.004144501539246295,-0.01486990603060645,9.81863867097367,0.0005885112375540922,0.00037379501073153215,0.00029567828144840306,147011.53125,103767.25,306766.28125,997.5094604492188,45.707767486572266
2060210100,0.0003564251980941041,-0.00669322910160941,9.816973555617224,0.0005978043816572318,0.0003940582034410675,0.00035196770889646715,147011.53125,103767.25,306766.28125,997.5094604492188,45.707767486572266
2060220308,-0.0007780151047547118,0.003446884430933772,9.822933066420447,0.00039386921413785613,5.5412042187503454e-05,0.00041768773783891803,147011.53125,103767.25,306766.28125,997.5094604492188,45.707767486572266
2060230486,0.004293602558151935,0.0065659060850628,9.816851485304724,0.0001980175118365588,-2.431867260022563e-05,0.00032082960800229913,147011.53125,103767.25,306766.28125,997.5094604492188,45.707767486572266
2060240715,0.013377231212631915,0.002449668921519099,9.809426177077185,-1.3364241779010512e-05,0.00017994658692621152,8.79223339628369e-05,147011.53125,103767.25,306766.28125,997.5094604492188,45.707767486572266
2060250068,0.0047982601843039735,9.939052153407069e-06,9.809244025282752,0.00011800173594344244,-0.00013430472544862432,1.2442772034177216e-05,147011.53125,103767.25,306766.28125,997.5094604492188,45.707767486572266
2060260109,0.004566778095738147,-0.0039292127117626086,9.8101071005391,0.00038243548330462373,-0.00029215959447904033,-0.00031665127923284316,147011.53125,103767.25,306766.28125,997.5094604492188,45.707767486572266
2060270424,-0.0069115938224632995,-0.002405136846017064,9.817066062025916,0.0002842630681403244,-0.00021580421098044616,-0.00025978697837368244,147011.53125,103767.25,306766.28125,997.5094604492188,45.707767486572266
2060280282,-0.0005437688507874266,0.0015630349293239698,9.808354247145544,0.00023813378790470607,0.0003603109295945381,7.538012553899887e-05,147011.53125,103767.25,306766.28125,997.5094604492188,45.707767486572266
2060290279,0.004099395724312518,-0.002620540581654729,9.804696906142127,0.0002138240204363393,0.0006342417843406786,0.0001047590308492944,147011.53125,103767.25,306766.28125,997.5094604492188,45.707767486572266
2060300065,-0.0006068305649597899,-0.005312532208871068,9.80771337800492,0.0003001204647876585,0.0006774912696564336,4.748767726995369e-07,149769.25,105040.0625,303616.28125,997.5206909179688,45.69809341430664
2060312502,-0.0019471751131851928,0.0005244686975963697,9.81418310456742,9.659691274243244e-05,0.0005259329852415015,0.00024386449925563637,149769.25,105040.0625,303616.28125,997.5206909179688,45.69809341430664
2060320287,0.0028013108692328675,0.001044519223261653,9.815504897169959,0.00023057316572482533,0.00047492686344773966,6.141994939147833e-05,149769.25,105040.0625,303616.28125,997.5206909179688,45.69809341430664
2060330541,0.006183881910816882,-0.00010668488593024161,9.81143366151322,-0.00015445891334132456,0.0002252514538704184,1.641586689706299e-05,149769.25,105040.0625,303616.28125,997.5206909179688,45.69809341430664
2060340708,0.00021128788806602794,0.0004914104714878187,9.811756957106482,0.00013638619272348306,5.7718251540767875e-05,-9.329038172532466e-05,149769.25,105040.0625,303616.28125,997.5206909179688,45.69809341430664
2060350143,-0.0045663298644860045,0.007892020024348079,9.815392363600623,0.0005665249234585354,0.00032229936250948804,4.989382844846103e-05,149769.25,105040.0625,303616.28125,997.5206909179688,45.69809341430664
2060360091,-0.007450680581553723,0.004900075472880183,9.807937491469275,0.00039043825087680317,0.000140545058642578,-0.00010631612459897598,149769.25,105040.0625,303616.28125,997.5206909179688,45.69809341430664
2060370318,0.004406113775746082,0.0003510787859447584,9.812918532423865,-0.00014458434746523552,-0.00021600095287433368,0.0002298581935368419,149769.25,105040.0625,303616.28125,997.5206909179688,45.69809341430664
2060380241,-0.05173518821380928,-0.031187884531926335,9.849162924818884,-0.007391042828414749,0.00866105316590981,9.546143386009488e-05,149769.25,105040.0625,303616.28125,997.5206909179688,45.69809341430664
2060390360,0.0917445855609338,0.0664910599365719,9.815097678236853,-0.0007869412613512685,0.007469438504544064,-0.0006256871451720654,149769.25,105040.0625,303616.28125,997.5206909179688,45.69809341430664
2060402806,-0.004762578157408978,-0.003814838849019231,9.806620467238318,0.015388539705570628,-0.009442718677106337,-0.0014539883881904245,150723.84375,103449.0546875,302566.28125,997.5303955078125,45.705078125
2060410112,-0.00657292023084953,-0.012965880356740178,9.795827734999548,0.013906441342230727,-0.007782053179922537,-0.0011413822826094986,150723.84375,103449.0546875,302566.28125,997.5303955078125,45.705078125
2060420415,-0.019092533139212872,-0.025927625618886174,9.805399764113318,0.007374065175797631,-0.0012978707448346775,-0.0004256242422949582,150723.84375,103449.0546875,302566.28125,997.5303955078125,45.705078125
2060430429,-0.008712235239966656,-0.015270471595238866,9.810222495131384,0.00010973502391386148,0.003550602378440066,-1.2649932129221378e-05,150723.84375,103449.0546875,302566.28125,997.5303955078125,45.705078125
2060440759,0.0049672840557257875,-0.014600515387963475,9.812347281508337,-0.0034089447537848463,0.005200575128314062,0.0001389211943508998,150723.84375,103449.0546875,302566.28125,997.5303955078125,45.705078125
2060450091,-0.0009002493300278441,-0.017129190288495244,9.81462084107865,-0.005920893333707164,0.006825396347907349,0.0004473386038929165,150723.84375,103449.0546875,302566.28125,997.5303955078125,45.705078125
2060462486,-0.008013937024100568,-0.012314043961476506,9.816076148085486,-0.008883419733349393,0.010534656256553693,0.0005353970741756201,150723.84375,103449.0546875,302566.28125,997.5303955078125,45.705078125
2060470335,-0.01591117992780998,-0.014208011351536931,9.814297545485388,-0.009951344977919172,0.012554614827153249,0.00047935526211708194,150723.84375,103449.0546875,302566.28125,997.5303955078125,45.705078125
2060480288,-0.006187784818633343,0.00041272488980370614,9.815182555251013,-0.013244796831015657,0.019211933039245174,0.00043082800087481147,150723.84375,103449.0546875,302566.28125,997.5303955078125,45.705078125
2060490324,0.026026793422476505,0.009099878348398982,9.813257086806189,-0.011696565251652311,0.018738236300763652,0.0007176296608425618,150723.84375,103449.0546875,302566.28125,997.5303955078125,45.705078125
2060500052,0.017068427654282306,0.007648788370180903,9.824219573073279,-0.00795746343940885,0.012608099751290841,-0.0001893954572248332,149132.875,107373.5,301516.28125,997.5285034179688,45.70024490356445
2060510079,0.0208829014024894,0.01515214888005334,9.821561682753455,-0.004170516326878379,0.008325048744794889,-0.00024902762694787824,149132.875,107373.5,301516.28125,997.5285034179688,45.70024490356445
2060520314,0.028188046666161273,0.017130009807635127,9.819699156813513,0.0010332854042349646,0.00016831027706209562,-0.0006240509278237879,149132.875,107373.5,301516.28125,997.5285034179688,45.70024490356445
2060530499,0.021710280927197192,0.009051509179163753,9.816919196181189,0.007542270880337645,-0.007974540792289214,-0.0010329801184222162,149132.875,107373.5,301516.28125,997.5285034179688,45.70024490356445
2060540631,-0.0013147474803765075,-0.006579130910348119,9.812320578627478,0.009889972109492709,-0.01004095373291059,-0.0009984716484420062,149132.875,107373.5,301516.28125,997.5285034179688,45.70024490356445
2060550111,-0.018646116701586987,-0.027515798829507054,9.808482039503943,0.002825811451446105,-0.0027879259790061276,-0.0005554463891409397,149132.875,107373.5,301516.28125,997.5285034179688,45.70024490356445
2060560065,-0.009448553768618848,-0.01930686833710593,9.807495940260779,-0.005688469678018402,0.00568468498450236,-0.00021517581214234826,149132.875,107373.5,301516.28125,997.5285034179688,45.70024490356445
2060570328,-0.003938625899775769,0.007859550394106685,9.81370817475785,-0.009109637986723493,0.010301605820772214,-0.00021559583862349984,149132.875,107373.5,301516.28125,997.5285034179688,45.70024490356445
2060580264,0.013005059810654376,0.020221762336779414,9.814571250014197,-0.007298223960999559,0.011330061614629789,0.00015712428697347048,149132.875,107373.5,301516.28125,997.5285034179688,45.70024490356445
2060590319,0.03263357341505692,0.013129405654955684,9.810305464796912,-0.005027890492085527,0.006194814130780264,0.00029628643508962697,149132.875,107373.5,301516.28125,997.5285034179688,45.70024490356445
2060600083,0.02825301200367615,0.0255354866161831,9.820306647353064,0.001633750570151795,0.0006957808734150369,0.00012030600604097697,146799.40625,105888.5703125,304816.28125,997.5272216796875,45.69809341430664
2060610084,0.03376071587421105,0.011740155495692073,9.82362734132279,0.010270508650835444,-0.00549997293937488,0.00012503662995490584,146799.40625,105888.5703125,304816.28125,997.5272216796875,45.69809341430664
2060620322,0.026901174934879993,0.001448571659613429,9.82238279633988,0.014876506004627634,-0.014339824184658961,0.00015338715141601268,146799.40625,105888.5703125,304816.28125,997.5272216796875,45.69809341430664
2060630501,0.014235947879330371,0.0029518082514293775,9.811455596022498,0.015287807855900217,-0.01927421053487344,5.752461996357295e-05,146799.40625,105888.5703125,304816.28125,997.5272216796875,45.69809341430664
2060640697,0.0017468823514144166,0.005800135411310969,9.809726584486853,0.01669307210683434,-0.01967968044418378,-0.00027971541882530445,146799.40625,105888.5703125,304816.28125,997.5272216796875,45.69809341430664
2060650069,0.008031283172146533,-0.010566070698212804,9.806188452772986,0.0160644070172271,-0.01691968550521417,-0.0012683455310858846,146799.40625,105888.5703125,304816.28125,997.5272216796875,45.69809341430664
2060660061,0.017114829870239948,-0.007097333692025365,9.803605902724158,0.012175297077890326,-0.014140966325881915,-0.001921770413415885,146799.40625,105888.5703125,304816.28125,997.5272216796875,45.69809341430664
2060670322,0.5291584922394912,0.09977545586972314,9.804758894972693,0.004033112611766745,0.000602220149361505,-0.013791206194097554,146799.40625,105888.5703125,304816.28125,997.5272216796875,45.69809341430664
2060680313,0.5203310145459334,0.06391539422421533,9.8154724722432,-0.007277244988683771,0.00651472017553167,-0.03985299067013935,146799.40625,105888.5703125,304816.28125,997.5272216796875,45.69809341430664
2060690375,0.5067889882645766,0.06673885134606439,9.817164290480505,-0.004352404557023357,0.006674192868289515,-0.008530441572899377,146799.40625,105888.5703125,304816.28125,997.5272216796875,45.69809341430664
2060700137,1.0693678452096145,0.2266521528139599,9.803086150221716,0.0019138043906128297,0.0066209561416180574,0.05941186948305889,148708.59375,106100.7109375,298666.25,997.5489501953125,45.70561599731445
2060712529,1.3526061965546767,0.2635978534594067,9.802221167616736,0.0040272527301272645,0.0043294020221801245,0.2224563743043594,148708.59375,106100.7109375,298666.25,997.5489501953125,45.70561599731445
2060720327,1.258350868376271,0.18088344482331353,9.802386153273474,0.003892510842677046,0.0014047996598528464,0.3401120091844253,148708.59375,106100.7109375,298666.25,997.5489501953125,45.70561599731445
2060730517,1.1468556119523208,0.08515026418118554,9.803177702956091,0.0017907455956151972,-5.373937101105702e-05,0.41908217324501795,148708.59375,106100.7109375,298666.25,997.5489501953125,45.70561599731445
2060740652,1.0613469673714797,-0.09553200008721274,9.801152098708044,-0.0041992969884017215,0.0014630117445485432,0.34608674897438807,148708.59375,106100.7109375,298666.25,997.5489501953125,45.70561599731445
2060750089,1.029262025507466,-0.28849077972025794,9.802026618056189,-0.00940248026311786,0.004101699240622088,0.14429705693012998,148708.59375,106100.7109375,298666.25,997.5489501953125,45.70561599731445
2060760091,1.1278410150132339,-0.513261280976247,9.80020319276322,-0.014184762079123567,0.006274700652924343,-0.07686037467234806,148708.59375,106100.7109375,298666.25,997.5489501953125,45.70561599731445
2060770323,1.1644803477845351,-0.9225494191274158,9.793168891005408,-0.021735770914558483,0.008471197471138997,-0.26988746867888647,148708.59375,106100.7109375,298666.25,997.5489501953125,45.70561599731445
2060780282,1.0271277023873489,-1.2044828459844106,9.777119505934607,-0.025406310621503902,0.01064123494934754,-0.5091902826856919,148708.59375,106100.7109375,298666.25,997.5489501953125,45.70561599731445
2060790285,0.9713331653199355,-1.0741661712750905,9.774869788222205,-0.020835575003031803,0.00981431456666903,-0.7064693187307663,148708.59375,106100.7109375,298666.25,997.5489501953125,45.70561599731445
2060800058,0.8590204907975356,-0.6640353128537647,9.787715781264197,-0.0124589254221359,0.009769691176828904,-0.8092243288587876,147647.9375,102494.46875,307516.28125,997.5326538085938,45.701316833496094
2060810084,0.7451204253754775,-0.08972445132584494,9.803786147169959,-0.003817987914983343,0.010912784397718473,-0.850039503438408,147647.9375,102494.46875,307516.28125,997.5326538085938,45.701316833496094
2060820303,0.6436404182038467,0.5606836154833325,9.815978873305212,0.001955147778760482,0.011909967310843034,-0.8615102385114976,147647.9375,102494.46875,307516.28125,997.5326538085938,45.701316833496094
2060830522,0.601000626238362,0.9992250874414929,9.816928732924353,0.003779339783038784,0.010583815187332197,-0.8401864980291672,147647.9375,102494.46875,307516.28125,997.5326538085938,45.701316833496094
2060840764,0.7213134361825149,1.1113733723536021,9.824212897353064,0.00371295557558148,0.00844552928966002,-0.7924706553053208,147647.9375,102494.46875,307516.28125,997.5326538085938,45.701316833496094
2060850056,0.9906945420823257,1.0520815327539927,9.815914977126013,0.003983013278018524,0.004948369249817892,-0.6651822541784592,147647.9375,102494.46875,307516.28125,997.5326538085938,45.701316833496094
2060860141,1.2175792647919814,0.969673939026881,9.808787215285193,0.005759970929618765,0.001099613401223882,-0.43012948976271825,147647.9375,102494.46875,307516.28125,997.5326538085938,45.701316833496094
2060870335,1.3089251710496108,0.7976800277605541,9.817262518935095,0.006457587883021523,-0.002545540664228634,-0.11245789275878147,147647.9375,102494.46875,307516.28125,997.5326538085938,45.701316833496094
2060880303,1.1188720656953017,0.35482565311341363,9.81123720460404,0.009384455803926875,-0.007379448018851713,0.2045244510341339,147647.9375,102494.46875,307516.28125,997.5326538085938,45.701316833496094
2060890316,0.7680833531937759,-0.059122800849389257,9.791910994582068,0.011118359577055861,-0.00928744950878902,0.4142259146142654,147647.9375,102494.46875,307516.28125,997.5326538085938,45.701316833496094
2060900141,0.220260475429074,-0.3678172603473179,9.791701186232459,0.010104433346684863,-0.008697615913930373,0.5192594314981155,152526.984375,106524.9765625,303466.28125,997.5587768554688,45.702392578125
2060910087,-0.33001051410816507,-0.5154074356183521,9.794868338637244,0.005163217608030726,-0.00865511780220552,0.5077673579621963,152526.984375,106524.9765625,303466.28125,997.5587768554688,45.702392578125
2060920281,-0.6736515568175157,-0.4801727161035053,9.80078970246781,-0.0014290613428169598,-0.006782189454766945,0.3835622157025985,152526.984375,106524.9765625,303466.28125,997.5587768554688,45.702392578125
2060930538,-0.7676709102072556,-0.28597479315848273,9.805843222670447,-0.007627104230079959,-0.005171534117194847,0.20095294071919248,152526.984375,106524.9765625,303466.28125,997.5587768554688,45.702392578125
2060940594,-0.6441357539572556,-0.040947258494805516,9.811923850111853,-0.010627096805576395,-0.0054681338145165,0.04951974852568432,152526.984375,106524.9765625,303466.28125,997.5587768554688,45.702392578125
2060950051,-0.4076171027102311,0.11353678254036981,9.821594107680212,-0.012773950870935033,-0.0036614606863586466,-0.023739770887429273,152526.984375,106524.9765625,303466.28125,997.5587768554688,45.702392578125
2060960088,-0.1961503730692704,0.107598476089526,9.831067908339392,-0.012188266318146299,-0.0011181629736675184,-0.08254643426650242,152526.984375,106524.9765625,303466.28125,997.5587768554688,45.702392578125
2060970331,0.06737476088322804,0.01574479786305505,9.825171340041052,-0.00700536818042786,-0.000491354824858741,-0.1284541104864426,152526.984375,106524.9765625,303466.28125,997.5587768554688,45.702392578125
2060980260,0.2535958631358306,-0.07779377328605575,9.82080923371781,0.00013547166669701993,-0.0026762010304956,-0.0873001952599831,152526.984375,106524.9765625,303466.28125,997.5587768554688,45.702392578125
2060990399,0.22142532900191947,-0.04673519732804221,9.817774642043005,0.006768016323592354,-0.0030504122617421906,0.025592644797628367,152526.984375,106524.9765625,303466.28125,997.5587768554688,45.702392578125
2061002796,-0.10852306648872688,-0.07270753013343734,9.804571021132361,0.005783647943433215,-0.0024763552712975304,0.11852039499766155,162178.984375,110873.671875,307516.28125,997.5494384765625,45.707767486572266
2061012534,-0.34633837207935647,-0.2140257731303684,9.811262000136267,0.0036617693883886824,0.0007197019519516964,0.0561537380386047,162178.984375,110873.671875,307516.28125,997.5494384765625,45.707767486572266
2061020338,-0.36697603329799966,-0.2901528701409809,9.81807600312699,0.004870699431892325,0.0025802098904968936,-0.017244146106774366,162178.984375,110873.671875,307516.28125,997.5494384765625,45.707767486572266
2061030492,-0.3722234474100907,-0.37029380353541297,9.810872901015173,0.006733571823831488,0.0027055535690160234,-0.07943793283217625,162178.984375,110873.671875,307516.28125,997.5494384765625,45.707767486572266
2061040724,-0.3856429861464341,-0.2912081107720844,9.80409895234574,0.009875125896330763,0.00404619334649758,-0.10434940354340748,162178.984375,110873.671875,307516.28125,997.5494384765625,45.707767486572266
2061050107,-0.4213495658316453,-0.1263683079965524,9.809972632460486,0.014686270330246378,0.0034194581900955875,-0.1174830560516663,162178.984375,110873.671875,307516.28125,997.5494384765625,45.707767486572266
2061060085,-0.4690956877150376,0.07022515682129937,9.819768775038611,0.019384665127988743,0.001570429558982118,-0.12478540734761433,162178.984375,110873.671875,307516.28125,997.5494384765625,45.707767486572266
2061070335,-0.44267396196506814,0.26594773677735406,9.82279955201615,0.02215310343741982,-0.0006517997019691627,-0.12806167350524142,162178.984375,110873.671875,307516.28125,997.5494384765625,45.707767486572266
2061080327,-0.3604815410055955,0.3570000305548199,9.811241019301306,0.02088344813525288,-0.003976259358110861,-0.11034518377297596,162178.984375,110873.671875,307516.28125,997.5494384765625,45.707767486572266
2061090320,-0.24613372549198465,0.34210241583733636,9.801648009352576,0.015692411635216164,-0.007138737454894022,-0.05197191880458073,162178.984375,110873.671875,307516.28125,997.5494384765625,45.707767486572266
2061100135,-0.009419161228163983,0.18912336973099786,9.808502066664587,0.009986956317122866,-0.011334503978374438,0.021602965058749164,176603.953125,108964.4921875,313216.25,997.5169067382812,45.697021484375
2061110031,0.19292979374744101,0.04280484465508538,9.816773284010779,0.005703860607143332,-0.013417120069148974,0.08176705344206615,176603.953125,108964.4921875,313216.25,997.5169067382812,45.697021484375
2061120320,0.27990334168292685,0.02455732969193536,9.81488882356156,0.0027014801205655823,-0.008599136002245383,0.10987028582579418,176603.953125,108964.4921875,313216.25,997.5169067382812,45.697021484375
2061130577,0.18606882974721595,0.10846718398480493,9.822913992934119,-0.0003838447694146743,0.0013123320174636085,0.12629593266732023,176603.953125,108964.4921875,313216.25,997.5169067382812,45.697021484375
2061140664,0.041424118580595706,0.30481461433320123,9.824090827040564,0.0004133127556702385,0.003653479529661103,0.17187851025349424,176603.953125,108964.4921875,313216.25,997.5169067382812,45.697021484375
2061150053,-0.023016262201293256,0.3651539757624157,9.826164115004431,0.0037659648267140875,-0.0011623024250148098,0.25676716222054285,176603.953125,108964.4921875,313216.25,997.5169067382812,45.697021484375
2061160142,-0.12641050979278878,0.19483146814255792,9.8293884878682,0.004076900605257441,-0.004976170580717758,0.31529016150719447,176603.953125,108964.4921875,313216.25,997.5169067382812,45.697021484375
2061170383,-0.30173410042904214,-0.029895268403004827,9.823267806105505,0.002070504652481366,-0.0061187692693202055,0.2929986800122909,176603.953125,108964.4921875,313216.25,997.5169067382812,45.697021484375
2061180280,-0.34018666609905557,-0.08671620862932128,9.818078864149939,6.409903723358014e-05,-0.007868071995559172,0.20890814913994596,176603.953125,108964.4921875,313216.25,997.5169067382812,45.697021484375
2061190417,-0.3045604930796464,-0.08850663157553595,9.819979537062537,-0.001178549772914659,-0.007999369852128463,0.14121682299858854,176603.953125,108964.4921875,313216.25,997.5169067382812,45.697021484375
2061200043,-0.17841614350460366,-0.08339464666695517,9.820839751295935,-0.0020403543560245743,-0.005350545957568125,0.1126359413433723,186468.109375,105252.1796875,323566.25,997.5601196289062,45.69916915893555
2061210125,-0.008361387399657513,-0.06834903734178466,9.818749297194373,9.950104034039043e-05,-0.003173009702819423,0.1345565999913864,186468.109375,105252.1796875,323566.25,997.5601196289062,45.69916915893555
2061220319,0.13708212286450072,-0.07899218799920005,9.81598745637406,0.002755226979177285,-0.004006932467105821,0.18004370583779142,186468.109375,105252.1796875,323566.25,997.5601196289062,45.69916915893555
2061230504,0.16822980031587287,-0.07167046146840972,9.817169058852087,0.004926790662254979,-0.005704049464198784,0.18908619238621518,186468.109375,105252.1796875,323566.25,997.5601196289062,45.69916915893555
2061240657,0.17544464454271003,-0.012162469349812688,9.80492960267533,0.005124483436491181,-0.003887552745523886,0.14259863747841642,186468.109375,105252.1796875,323566.25,997.5601196289062,45.69916915893555
2061250099,0.18215842232324286,0.017610855378199397,9.80478369050492,0.0023885485177448282,-0.0008845496698050063,0.07264753534085079,186468.109375,105252.1796875,323566.25,997.5601196289062,45.69916915893555
2061262538,0.23631293013908072,0.07355121520905572,9.811488020949255,-0.0028747437129208555,0.0006556910454528172,-0.008191557502383744,186468.109375,105252.1796875,323566.25,997.5601196289062,45.69916915893555
2061270298,0.3072290761790435,0.12289028612523156,9.814557898573767,-0.005610851857666086,0.0013583734623389084,-0.0356843237709351,186468.109375,105252.1796875,323566.25,997.5601196289062,45.69916915893555
2061280252,0.360277046116368,0.0762258991375454,9.812211859755408,-0.007900698397163461,0.003684188028913899,-0.02988446587138847,186468.109375,105252.1796875,323566.25,997.5601196289062,45.69916915893555
2061290334,0.3066354288182418,-0.07116316633672637,9.818427908949744,-0.011388607609871934,0.011318124853190942,0.004127116041248286,186468.109375,105252.1796875,323566.25,997.5601196289062,45.69916915893555
2061302814,0.12203672960616753,-0.16885561870784682,9.819544661574255,-0.01247950113177688,0.01372387355577664,0.0618992644417934,190498.59375,98463.953125,338866.28125,997.5352172851562,45.70077896118164
2061310061,-0.04215272828720405,-0.23576881738753241,9.817627776198279,-0.010081652838591646,0.010217538125929399,0.0938763554263763,190498.59375,98463.953125,338866.28125,997.5352172851562,45.70077896118164
2061320304,-0.15340394839428262,-0.2313949316963665,9.813090193800818,-0.007896558668319295,0.004999436460551783,0.09615004910713955,190498.59375,98463.953125,338866.28125,997.5352172851562,45.70077896118164
2061330439,-0.038483734575732495,-0.2292668968662731,9.792361128859412,-0.006328872691694807,0.003256956137833162,0.05405579610354229,190498.59375,98463.953125,338866.28125,997.5352172851562,45.70077896118164
2061340714,0.18029548660136863,-0.24406950177998465,9.798026907973181,-0.004111809011403631,0.004343892935779854,-0.0015818262649796963,190498.59375,98463.953125,338866.28125,997.5352172851562,45.70077896118164
2061350048,0.2895317269883315,-0.04405737670512122,9.801223624281775,0.0007104217118172238,0.005569899942842289,-0.04718428002112583,190498.59375,98463.953125,338866.28125,997.5352172851562,45.70077896118164
2061362528,0.27731126979209586,0.4194997027292736,9.818616736464392,0.013229638051386763,0.0042346897759707415,-0.05796222285741047,190498.59375,98463.953125,338866.28125,997.5352172851562,45.70077896118164
2061370318,0.3358494831643264,0.6025560572519787,9.824846137099158,0.021797882106300282,0.002066863373969658,-0.01697732218914703,190498.59375,98463.953125,338866.28125,997.5352172851562,45.70077896118164
2061380293,0.39624406829692527,0.5461863353624828,9.820428717665564,0.029701344382162976,-0.003173560580122308,0.09772212906367107,190498.59375,98463.953125,338866.28125,997.5352172851562,45.70077896118164
2061390284,0.3979139222226302,0.2444957270994671,9.799648154311072,0.033093986746068886,-0.004839893408003286,0.2384844209123306,190498.59375,98463.953125,338866.28125,997.5352172851562,45.70077896118164
2061400100,0.37364127174235984,-0.08349040152878684,9.790582526259314,0.029420144569273877,-0.0023397849648026984,0.31582839144951624,200044.546875,92312.125,343966.25,997.5463256835938,45.6943359375
2061410065,0.3158592326960723,-0.3362288400754444,9.787358153395544,0.023239196922775197,0.002788995415088697,0.3205719973016433,200044.546875,92312.125,343966.25,997.5463256835938,45.6943359375
2061420294,0.09571747169114754,-0.37695395203680915,9.803916800551306,0.019140286084409642,0.004224608674761816,0.26104132189041895,200044.546875,92312.125,343966.25,997.5463256835938,45.6943359375
2061430427,-0.19576666816852883,-0.3012629524096958,9.794998992018591,0.015945348601933407,0.004782328870263859,0.19077862157112882,200044.546875,92312.125,343966.25,997.5463256835938,45.6943359375
2061440745,-0.5069446371474107,-0.19110480698199195,9.798442709975134,0.010793291676934649,0.007897388678160472,0.132229008810585,200044.546875,92312.125,343966.25,997.5463256835938,45.6943359375
2061450109,-0.7552895353712876,0.09199408439545709,9.814341414503943,0.006090361803915192,0.011092611611005826,0.0746410722900085,200044.546875,92312.125,343966.25,997.5463256835938,45.6943359375
2061460102,-0.7813300298132737,0.3658297434225567,9.835753310255896,0.0050717035235425725,0.008888828590628667,0.01894361069983765,200044.546875,92312.125,343966.25,997.5463256835938,45.6943359375
2061470332,-0.6970882223524888,0.5451700761690624,9.840737212233435,0.004955364104505469,0.005947165679302975,-0.02936205909960941,200044.546875,92312.125,343966.25,997.5463256835938,45.6943359375
2061480335,-0.45756922229908303,0.5701567008867748,9.834878790907752,0.0032833865304997454,0.0049954019711585486,-0.04408420146816448,200044.546875,92312.125,343966.25,997.5463256835938,45.6943359375
2061490293,-0.12482562228821113,0.41476017979531365,9.82024942689408,0.0010265218486598024,0.003861259924364253,-0.051437503559524575,200044.546875,92312.125,343966.25,997.5463256835938,45.6943359375
2061500063,0.17108062342025443,0.20953596381096917,9.810642111830603,-0.0015920783000478258,0.001170772150275274,-0.08841927246564106,202165.859375,87857.3671875,359866.28125,997.5385131835938,45.69755935668945
2061510065,0.37948705688335105,0.09377407280354577,9.80084024720658,-0.0027448894063422193,-0.00010473989031745595,-0.12839116798155978,202165.859375,87857.3671875,359866.28125,997.5385131835938,45.69755935668945
2061520312,0.4687275780759017,0.00025098023562508676,9.796864378981482,-0.005629794958833765,0.003756994404015108,-0.13610083506816104,202165.859375,87857.3671875,359866.28125,997.5385131835938,45.69755935668945
2061530551,0.39498220816470786,-0.03140505405516547,9.807243216566931,-0.006674493949715208,0.00687484631699042,-0.12069836900942997,202165.859375,87857.3671875,359866.28125,997.5385131835938,45.69755935668945
2061540659,0.2467042399964492,-0.03135985883326453,9.815336096815955,-0.0007998963658177962,0.002234304579091235,-0.09083595768922047,202165.859375,87857.3671875,359866.28125,997.5385131835938,45.69755935668945
2061550101,0.11724029168702767,-0.08099929618091506,9.817898619704138,0.009137655321653773,-0.005897433940204815,-0.03514982284420208,202165.859375,87857.3671875,359866.28125,997.5385131835938,45.69755935668945
2061560156,-0.04084789320610359,-0.17585813256354255,9.819552290968787,0.013954622384305884,-0.008169441461446719,0.06775035812145992,202165.859375,87857.3671875,359866.28125,997.5385131835938,45.69755935668945
2061570326,-0.21681762799404458,-0.29452499004454535,9.815707076125037,0.009867664139862944,-0.005484597269329265,0.14278536392933652,202165.859375,87857.3671875,359866.28125,997.5385131835938,45.69755935668945
2061580271,-0.33225605949543313,-0.3188992664441578,9.79943643861283,0.0011253588061368356,0.002343972934526368,0.16093186392075345,202165.859375,87857.3671875,359866.28125,997.5385131835938,45.69755935668945
2061590341,-0.3195101426520188,-0.36028795691580695,9.7993010168599,-0.00702421069875748,0.010954734891769452,0.0988625819850616,202165.859375,87857.3671875,359866.28125,997.5385131835938,45.69755935668945
2061600113,-0.21067849859379129,-0.3712690845355503,9.804010260634314,-0.010016303796176027,0.01404049063485579,-0.014450332051152742,199620.265625,78099.296875,380266.28125,997.5575561523438,45.69540786743164
2061610126,0.023319513203875278,-0.21798305960745734,9.812559950880896,-0.006379606488946985,0.012982395500061078,-0.13149463282340243,199620.265625,78099.296875,380266.28125,997.5575561523438,45.69540786743164
2061620348,0.1850349499306838,0.0100458785667904,9.812186110548865,-0.0017116155315601935,0.01101088432979302,-0.19556791232341006,199620.265625,78099.296875,380266.28125,997.5575561523438,45.69540786743164
2061630467,0.31077258721210166,0.15238390115647393,9.808935988478552,0.0014174178402459512,0.008114803604898019,-0.19649913058989718,199620.265625,78099.296875,380266.28125,997.5575561523438,45.69540786743164
2061640745,0.43181328907825156,0.13681802896409112,9.80136286073197,2.912683409483009e-05,0.006703114159521624,-0.13280530915969088,199620.265625,78099.296875,380266.28125,997.5575561523438,45.69540786743164
2061650100,0.4537514044366042,0.012275628723192988,9.797095168166052,-0.0017197792724186292,0.005899770207819506,-0.03937944294326977,199620.265625,78099.296875,380266.28125,997.5575561523438,45.69540786743164
2061660105,0.31928098634101554,-0.08874304222316665,9.816765654616248,-0.0037442970162668934,0.002899091713246866,0.03343790500051304,199620.265625,78099.296875,380266.28125,997.5575561523438,45.69540786743164
2061670329,0.1446822664163272,-0.14258106241376323,9.817480910353552,-0.002740647232014846,-0.0022874518538592617,0.039782417105501136,199620.265625,78099.296875,380266.28125,997.5575561523438,45.69540786743164
2061680257,0.012049187572972034,-0.3633494600877277,9.808862555556189,-0.006351901039336036,-0.0032106619103579085,-0.028503286553556478,199620.265625,78099.296875,380266.28125,997.5575561523438,45.69540786743164
2061690290,-0.06789569124363258,-0.5277124569043629,9.797839987807166,-0.00971056177080066,-0.003799955803784565,-0.1625533615183182,199620.265625,78099.296875,380266.28125,997.5575561523438,45.69540786743164
2061700081,-0.0595384345927079,-0.449018858395528,9.803467619948279,-0.006055089466128658,-0.005505010463180975,-0.29257052288764196,206196.359375,72371.71875,390616.28125,997.5302734375,45.693260192871094
2061710056,-0.007156971243842389,-0.17140040921420974,9.807586539320837,-2.3575568077314414e-05,-0.0049382317586569345,-0.36435296283477026,206196.359375,72371.71875,390616.28125,997.5302734375,45.693260192871094
2061720356,0.11204697437800572,0.11667402831463891,9.811157095961462,0.0051652567388078465,-0.0024988485741196434,-0.38390727983229833,206196.359375,72371.71875,390616.28125,997.5302734375,45.693260192871094
2061730589,0.3904049886784713,0.2462383582964428,9.815517294936072,0.006818093072768141,0.0018198957192944129,-0.37018357859366613,206196.359375,72371.71875,390616.28125,997.5302734375,45.693260192871094
2061740655,0.7225163771233718,0.23325172809510308,9.812049735121619,0.005063100896920849,0.004900243621435925,-0.3187987719606705,206196.359375,72371.71875,390616.28125,997.5302734375,45.693260192871094
2061750100,0.8901667787156264,0.17864985016732293,9.81648622804154,0.001520409427728344,0.006175242852536007,-0.2487689171861954,206196.359375,72371.71875,390616.28125,997.5302734375,45.693260192871094
2061760120,0.9120858503899734,0.19578195361046868,9.807839263014685,-0.00033393932538495564,0.003392628649366065,-0.2169000719618149,206196.359375,72371.71875,390616.28125,997.5302734375,45.693260192871094
2061770314,0.949068207891957,0.15139887479691583,9.798439848952185,-0.0029437256118694057,0.004044489957508608,-0.2172435139250107,206196.359375,72371.71875,390616.28125,997.5302734375,45.693260192871094
2061780292,0.861776788385884,-0.0906076468750946,9.808495390944373,-0.007101671125594686,0.0075578177572460615,-0.18070738659613803,206196.359375,72371.71875,390616.28125,997.5302734375,45.693260192871094
2061790308,0.5380163683018844,-0.3859194144830219,9.809036124281775,-0.007398806333396743,-0.0008034061532235007,-0.14799391375296786,206196.359375,72371.71875,390616.28125,997.5302734375,45.693260192871094
2061802796,0.14968068585015937,-0.5732054636106007,9.796952117018591,-0.011089294504229139,0.002478801667806669,-0.1427385126184769,202484.046875,68447.28125,401266.28125,997.5330200195312,45.687347412109375
2061812543,-0.26013011798046426,-0.48703598233313483,9.812513220839392,-0.017451467279199672,0.012137657053885026,-0.09856872157567219,202484.046875,68447.28125,401266.28125,997.5330200195312,45.687347412109375
2061820312,-0.6376983927168687,-0.24016116561741752,9.817228186659705,-0.014348266001645635,0.008518482580897374,-0.07146901534312443,202484.046875,68447.28125,401266.28125,997.5330200195312,45.687347412109375
2061830484,-0.9457577274718125,0.1635650172605999,9.809698927931677,-0.005993992376927446,0.0005772620722418417,-0.08650120989793018,202484.046875,68447.28125,401266.28125,997.5330200195312,45.687347412109375
2061840680,-0.9170512960829575,0.3745792880430706,9.818331587843787,0.006264718894060542,-0.005048119906219677,-0.13368239150756075,202484.046875,68447.28125,401266.28125,997.5330200195312,45.687347412109375
2061852753,-0.6495430277266343,0.22445262221245843,9.831020224623572,0.01728262164830773,-0.009953197069349723,-0.19050048933737948,202484.046875,68447.28125,401266.28125,997.5330200195312,45.687347412109375
2061862514,-0.47466389402530984,0.019673638023424922,9.826004851393591,0.018410404857393193,-0.010185700818779902,-0.24287331746333315,202484.046875,68447.28125,401266.28125,997.5330200195312,45.687347412109375
2061870283,-0.31597609385631875,-0.1051784549132101,9.8184021597432,0.016444261830445218,-0.008162348508718447,-0.283827892405922,202484.046875,68447.28125,401266.28125,997.5330200195312,45.687347412109375
2061880244,-0.09985534414432838,-0.10218981469423694,9.809153426222693,0.014778026092942645,-0.0061259190327255285,-0.29654677854293066,202484.046875,68447.28125,401266.28125,997.5330200195312,45.687347412109375
2061890343,0.02924503073312447,-0.10781772436947745,9.812345374159705,0.012155655484791686,-0.0026037653217790883,-0.26370721207373815,202484.046875,68447.28125,401266.28125,997.5330200195312,45.687347412109375
2061900097,0.0847387239498283,-0.11016104838253182,9.821537840895544,0.00794193026810496,0.004113825060543581,-0.24498211489432528,194635.1875,59961.99609375,412966.3125,997.53662109375,45.691650390625
2061912590,0.17660372391559287,-0.09906390497834605,9.803293097548377,0.0055686567836961045,0.008956813275930448,-0.23419731007331088,194635.1875,59961.99609375,412966.3125,997.53662109375,45.691650390625
2061920315,0.1698812885604064,-0.2202092185840122,9.802210677199255,0.004545690205093314,0.012419195868191285,-0.23123250053637698,194635.1875,59961.99609375,412966.3125,997.53662109375,45.691650390625
2061930470,0.1532741977296035,-0.4264969155416004,9.807223189406287,0.0032918929980656395,0.01434549877804236,-0.2466525201629944,194635.1875,59961.99609375,412966.3125,997.53662109375,45.691650390625
2061940723,0.061764961706773494,-0.5816830918416492,9.788383353285681,0.003816322369646121,0.01259014478337483,-0.2622926746439286,194635.1875,59961.99609375,412966.3125,997.53662109375,45.691650390625
2061950124,-0.08773356243751838,-0.5364433154687397,9.788965094618689,0.008188436452444483,0.0077372296006651365,-0.2659801159929581,194635.1875,59961.99609375,412966.3125,997.53662109375,45.691650390625
2061960053,-0.15974930986545877,-0.306127406679105,9.80088506989945,0.012946279432769705,0.005997333698091074,-0.26942994342559057,194635.1875,59961.99609375,412966.3125,997.53662109375,45.691650390625
2061970304,-0.18931515082500772,-0.052543453894566716,9.806502211623084,0.013971999932225634,0.011001471452531381,-0.2553203021120377,194635.1875,59961.99609375,412966.3125,997.53662109375,45.691650390625
2061980326,-0.2233170972742875,0.13906655458359796,9.817034590773474,0.014340785045321871,0.00981039183598475,-0.23155086384528353,194635.1875,59961.99609375,412966.3125,997.53662109375,45.691650390625
2061990328,-0.16949168905399636,0.1620018854513653,9.813844550185095,0.011559311945136477,0.0054320008718641245,-0.22283968971484377,194635.1875,59961.99609375,412966.3125,997.53662109375,45.691650390625
2062002824,-0.08584641977928474,0.02161587027459222,9.819116461806189,0.004553490497317006,-0.005355726439389423,-0.2071722363066025,180634.46875,63780.37109375,432466.3125,997.51708984375,45.687347412109375
2062010111,-0.10407176181457832,-0.026482582114648046,9.81078611665238,-0.0018034312481472006,-0.011075260095181899,-0.19570750640147402,180634.46875,63780.37109375,432466.3125,997.51708984375,45.687347412109375
2062020315,-0.18719450697086648,0.012442968763399898,9.815014708571326,-0.007907321963314127,-0.014213726833346324,-0.1683059398960419,180634.46875,63780.37109375,432466.3125,997.51708984375,45.687347412109375
2062030482,-0.1936147616782029,0.004540421046305476,9.812123168043982,-0.011808845501247953,-0.016715135402861073,-0.1344037716221161,180634.46875,63780.37109375,432466.3125,997.51708984375,45.687347412109375
2062040671,-0.10270298585079506,-0.09637877161056918,9.803941596083533,-0.018295822951797557,-0.00868493130046411,-0.07331222192757801,180634.46875,63780.37109375,432466.3125,997.51708984375,45.687347412109375
2062052748,-0.11363189980171516,-0.19047315420956534,9.808083403639685,-0.02304704329729469,0.007317222211626335,0.005142726568495477,180634.46875,63780.37109375,432466.3125,997.51708984375,45.687347412109375
2062060120,-0.2333161936678727,-0.19062962385268134,9.81868349366654,-0.024294659782055927,0.01546745377045588,0.007904604176049674,180634.46875,63780.37109375,432466.3125,997.51708984375,45.687347412109375
2062070359,-0.37989107832096414,-0.09420269916207713,9.83389746003617,-0.02123961998880298,0.012357953027007146,-0.026260812668139493,180634.46875,63780.37109375,432466.3125,997.51708984375,45.687347412109375
2062080321,-0.46716890796802835,-0.027733080111455144,9.829054701857459,-0.012023366343084882,0.0015784438225673277,-0.06420826063864903,180634.46875,63780.37109375,432466.3125,997.51708984375,45.687347412109375
2062090286,-0.4605253742613633,0.01892199365048486,9.81810270600785,-0.003747752688680004,-0.0062195383718936,-0.07200562850945667,180634.46875,63780.37109375,432466.3125,997.51708984375,45.687347412109375
2062100108,-0.3525946246065934,-0.006789080820988835,9.802751410536658,-0.0006089195332901289,-0.0048740808627335585,-0.0739506994318314,177452.484375,59325.6015625,442966.25,997.4933471679688,45.69003677368164
2062112581,-0.1371233271040757,-0.10110237451643866,9.80432974153031,5.321240020527341e-05,-0.0009522994289873402,-0.09282359377854542,177452.484375,59325.6015625,442966.25,997.4933471679688,45.69003677368164
2062120315,0.0027475996337096437,-0.0507855788096897,9.806563246779334,0.0011588276290854702,0.0005484868822386254,-0.10391332106106953,177452.484375,59325.6015625,442966.25,997.4933471679688,45.69003677368164
2062130530,0.11926888734318421,0.0653144344463833,9.804595816664587,0.003760489115636636,-0.00021121433319060606,-0.07869680867903904,177452.484375,59325.6015625,442966.25,997.4933471679688,45.69003677368164
2062140737,0.08234222805343673,0.11578894404320794,9.811187613539587,0.0052473598086795106,-0.0031041060349671404,-0.012883894978100812,177452.484375,59325.6015625,442966.25,997.4933471679688,45.69003677368164
2062150073,-0.09068001374386146,0.14084989575295526,9.816630232863318,0.006889640066917826,-0.005728068739059404,0.04886956615931316,177452.484375,59325.6015625,442966.25,997.4933471679688,45.69003677368164
2062160118,-0.2936976955809434,0.12346089629082757,9.836736548476111,0.006800145555432726,-0.005893416680279211,0.10206369413620754,177452.484375,59325.6015625,442966.25,997.4933471679688,45.69003677368164
2062170323,-0.5680460141577561,0.026088885940600215,9.833701956801306,0.006818044178332974,-0.006264493312570289,0.11483122511393352,177452.484375,59325.6015625,442966.25,997.4933471679688,45.69003677368164
2062180302,-0.7053297565855821,-0.03343811633438987,9.8204773550557,0.006332751076813628,-0.005091981939855055,0.09930858864075466,177452.484375,59325.6015625,442966.25,997.4933471679688,45.69003677368164
2062190341,-0.7875042365469773,-0.059467412553738774,9.815358984999548,0.002875761773582388,-0.00016834159696011347,0.05952777071482464,177452.484375,59325.6015625,442966.25,997.4933471679688,45.69003677368164
2062200078,-0.730439107266887,-0.013053245864819707,9.817342627577673,0.0022604369485339413,0.006355110578355356,0.01717198743111416,164194.25,52855.578125,457366.3125,997.5391235351562,45.69003677368164
2062212574,-0.5491178439535935,0.0635056569948681,9.820098746352087,0.0035792579335680494,0.008647470757481618,0.00115505965053066,164194.25,52855.578125,457366.3125,997.5391235351562,45.69003677368164
2062220329,-0.4005706416048844,0.08098853377251702,9.820525038771521,0.0047911062763592496,0.009259308710810705,0.004678896261369431,164194.25,52855.578125,457366.3125,997.5391235351562,45.69003677368164
2062230542,-0.267934064713939,0.08342242983727532,9.827528822951209,0.007117476027604033,0.006636600498226448,0.008643887104456866,164194.25,52855.578125,457366.3125,997.5391235351562,45.69003677368164
2062240653,-0.21045113667629556,0.08063652364163476,9.822779524855505,0.011115716483589102,0.001618777424213453,0.0046106130871824864,164194.25,52855.578125,457366.3125,997.5391235351562,45.69003677368164
2062250132,-0.17646859153889016,0.07056265322117883,9.813082564406287,0.011766223881538798,-0.0015580906540854137,0.0035745313912533164,164194.25,52855.578125,457366.3125,997.5391235351562,45.69003677368164
2062260105,-0.14421146675728158,-0.056436963401745976,9.818429816298377,0.00939558510869353,-0.0025928038879065077,-0.014202755777174985,164194.25,52855.578125,457366.3125,997.5391235351562,45.69003677368164
2062270334,-0.04416352078102424,-0.11963690633327884,9.818921912245642,0.007677023012336184,-0.0041997148430673635,-0.01759210498445705,164194.25,52855.578125,457366.3125,997.5391235351562,45.69003677368164
2062280276,0.003282782288567279,-0.20465683939309043,9.816707480482947,0.0048505600468775525,-0.0025277058369247477,-0.0013893402824275256,164194.25,52855.578125,457366.3125,997.5391235351562,45.69003677368164
2062290298,0.02975690052129433,-0.2538120225295536,9.808388579420935,0.003086897956352521,-0.00094097990158482,0.032479682104652366,164194.25,52855.578125,457366.3125,997.5391235351562,45.69003677368164
2062300097,-0.0520020382084687,-0.3269429728612415,9.814147818617712,-0.0009630907399991264,-0.0004314909813693027,0.049269707040851554,149981.390625,46915.875,466666.3125,997.5243530273438,45.68573760986328
2062310120,-0.21121118530414895,-0.37204840036482734,9.816975462965857,-0.0050675210616031394,0.0016122414023848016,0.02902453123218342,149981.390625,46915.875,466666.3125,997.5243530273438,45.68573760986328
2062320344,-0.4358473823942979,-0.3524188921079151,9.807078230910193,-0.007294725913409303,0.0034825187401147325,-0.029941252334053075,149981.390625,46915.875,466666.3125,997.5243530273438,45.68573760986328
2062330488,-0.6070662544646104,-0.2418387085422985,9.793472159438025,-0.007061676874611686,0.004019545413670107,-0.09781341151707844,149981.390625,46915.875,466666.3125,997.5243530273438,45.68573760986328
2062340694,-0.7035866783537705,0.0027903094664104566,9.802877295546423,-0.005685663603101085,0.0051074852460296595,-0.12684168563597872,149981.390625,46915.875,466666.3125,997.5243530273438,45.68573760986328
2062350062,-0.6819512055792649,0.1486218347921856,9.803421843581091,-0.004113430444006036,0.00780454792466478,-0.1344417993854828,149981.390625,46915.875,466666.3125,997.5243530273438,45.68573760986328
2062360112,-0.4939876602568467,0.13477767256646234,9.804553854994666,-0.0039752785189488635,0.009483739756164117,-0.14356208489649966,149981.390625,46915.875,466666.3125,997.5243530273438,45.68573760986328
2062370309,-0.2972783254065354,0.018473006762553035,9.81305776887406,-0.003977722775045942,0.007434849184122845,-0.11939068035596088,149981.390625,46915.875,466666.3125,997.5243530273438,45.68573760986328
2062380251,-0.16251433953426675,-0.024051234148453893,9.808999884657752,-0.005222709670517753,0.004302253969130083,-0.06937021659129337,149981.390625,46915.875,466666.3125,997.5243530273438,45.68573760986328
2062390306,-0.10325836702965095,-0.11407106744499129,9.811121810011755,-0.005867929018888782,0.0024318169095786054,-0.029506188718611753,149981.390625,46915.875,466666.3125,997.5243530273438,45.68573760986328
2062400051,-0.1090711311974366,-0.1900409534797184,9.81652342133988,-0.007696725714806627,0.0006898079524980624,-0.022090491740042722,141708.21875,43521.76171875,473416.1875,997.5131225585938,45.68573760986328
2062410041,-0.14275565311096505,-0.21327678861470145,9.818624365858923,-0.010372131418291639,0.002888517476734682,-0.03349111871236042,141708.21875,43521.76171875,473416.1875,997.5131225585938,45.68573760986328
2062420330,-0.1456261531987031,-0.17470842229576033,9.82151495271195,-0.009780258226994585,0.003873821137589379,-0.02617321432941631,141708.21875,43521.76171875,473416.1875,997.5131225585938,45.68573760986328
2062430589,-0.09724060758732155,-0.14930017108471316,9.80849348359574,-0.008651427280012678,0.004054486774024531,0.0025865259636096596,141708.21875,43521.76171875,473416.1875,997.5131225585938,45.68573760986328
2062440655,-0.13317088350437478,-0.054384946845483007,9.8143738394307,-0.004152015138272356,0.002080675236997171,0.06336888028866573,141708.21875,43521.76171875,473416.1875,997.5131225585938,45.68573760986328
2062450082,-0.31157742008350686,0.05905546990780908,9.813833106093298,0.0004896606885882357,0.001937218847800954,0.11714664204603954,141708.21875,43521.76171875,473416.1875,997.5131225585938,45.68573760986328
2062460134,-0.4847680138029893,0.08321005848794061,9.81847654633988,0.003938039245229055,0.0011510584960924227,0.14168860866314695,141708.21875,43521.76171875,473416.1875,997.5131225585938,45.68573760986328
2062470330,-0.6774780558028062,0.053918831028033076,9.8235930090474,0.003914934296306063,0.0008662703555309911,0.14080361379868314,141708.21875,43521.76171875,473416.1875,997.5131225585938,45.68573760986328
2062480254,-0.6836498783507188,0.006626687921572505,9.819962370924841,0.0019607656329458842,0.0026725202557863433,0.11837788774258419,141708.21875,43521.76171875,473416.1875,997.5131225585938,45.68573760986328
2062490374,-0.5321497724928697,-0.06721063705534858,9.825491774611365,-0.0002954565818367263,0.0031048669704468687,0.09356252952105328,141708.21875,43521.76171875,473416.1875,997.5131225585938,45.68573760986328
2062500067,-0.3897161589541276,-0.1166314212828986,9.817198622755896,-0.0028959306030014267,0.0022328049169154604,0.07658599420077129,133329.015625,47658.33984375,470116.3125,997.522705078125,45.687347412109375
2062510088,-0.31244431003712014,-0.09459799530358237,9.820869315199744,-0.003832668352727007,0.0020348883924307067,0.06308207018858715,133329.015625,47658.33984375,470116.3125,997.522705078125,45.687347412109375
2062520351,-0.26845706566952066,-0.04299849274010581,9.808035719923865,-0.0014848259117865672,0.002537600951385661,0.04721463202125355,133329.015625,47658.33984375,470116.3125,997.522705078125,45.687347412109375
2062530474,-0.2078873024859269,-0.036858439467858495,9.811764586501013,-0.0007900503653513005,0.002691090827924176,0.03438004209286495,133329.015625,47658.33984375,470116.3125,997.522705078125,45.687347412109375
2062540696,-0.2640576468386491,-0.012259751580666722,9.817500937514197,0.0025454621688982735,0.002020934968371852,0.029262994514768565,133329.015625,47658.33984375,470116.3125,997.522705078125,45.687347412109375
2062550078,-0.2733956681170304,0.006046153582621394,9.809511054091345,0.004965984441485096,0.003007566113141342,0.029313451709216082,133329.015625,47658.33984375,470116.3125,997.522705078125,45.687347412109375
2062562537,-0.36043898328922586,0.009944580472994624,9.813675749831091,0.006734498024131943,0.0016537391572491963,0.028227114217346156,133329.015625,47658.33984375,470116.3125,997.522705078125,45.687347412109375
2062570295,-0.4591458247580369,0.0011383294835575208,9.81109129243363,0.00622788322358935,-0.0005641079981578748,0.02273415504581257,133329.015625,47658.33984375,470116.3125,997.522705078125,45.687347412109375
2062580248,-0.41480771764896707,-0.04064113648981971,9.803476203017127,0.004121590584661652,-6.17941762320931e-05,0.010792795667415107,133329.015625,47658.33984375,470116.3125,997.522705078125,45.687347412109375
2062590275,-0.15680191978596048,-0.060097381494950475,9.805979598097693,-0.0033922286777237167,0.0060203373656840765,0.00234619910455271,133329.015625,47658.33984375,470116.3125,997.522705078125,45.687347412109375
2062600062,0.01460387990094826,-0.03719635310025138,9.818631995253455,-0.009281975503865789,0.010437476471182866,6.909451306759718e-05,129298.5078125,48931.1328125,472066.3125,997.5044555664062,45.678749084472656
2062610099,0.06353323780216381,-0.018502824030827703,9.8280457144307,-0.007153653826419424,0.00701630397152619,0.0004435719279475451,129298.5078125,48931.1328125,472066.3125,997.5044555664062,45.678749084472656
2062620313,0.05187138974882767,-0.015657469652604283,9.82875429444779,-0.0023576925116071215,0.0006186554607702185,0.00022582155046015385,129298.5078125,48931.1328125,472066.3125,997.5044555664062,45.678749084472656
2062630528,0.03145406827546761,-0.01285787674040717,9.81432615571488,-0.00018944113547370934,-0.0023474250695435564,0.0003689638220142514,129298.5078125,48931.1328125,472066.3125,997.5044555664062,45.678749084472656
2062640671,0.01623371675826714,-0.027954496465634526,9.801067221693884,-0.0006463974088841786,-0.002514122497173981,0.0003212275737799645,129298.5078125,48931.1328125,472066.3125,997.5044555664062,45.678749084472656
2062650053,0.009873223157898639,-0.03579423578829688,9.79853140168656,-0.0033012552259901276,-0.0016140928267268698,0.0002868197739493043,129298.5078125,48931.1328125,472066.3125,997.5044555664062,45.678749084472656
2062660105,0.009221640082375263,-0.03584841641039771,9.804400313429724,-0.003444524302933525,0.0019422580014215548,0.00016396982803902927,129298.5078125,48931.1328125,472066.3125,997.5044555664062,45.678749084472656
2062670305,0.01041069314099953,-0.03253254296631736,9.80361067109574,-0.002241261590127062,0.004255107626435324,0.00021897164382002655,129298.5078125,48931.1328125,472066.3125,997.5044555664062,45.678749084472656
2062680298,0.01685353800870583,-0.020256392680119695,9.805447447829138,-8.1504457950752e-05,0.004422468621400162,0.00035779918519742197,129298.5078125,48931.1328125,472066.3125,997.5044555664062,45.678749084472656
2062690313,0.030180324467198108,-0.014305144570779027,9.804829466872107,0.00392083282783239,0.0030383200143696506,-0.0002294683540336847,129298.5078125,48931.1328125,472066.3125,997.5044555664062,45.678749084472656
2062700103,0.029808525594250415,-0.019974447809170903,9.814897406630408,0.006572844173904349,-0.0005899811870185893,-0.0007078348021119892,133859.34375,39915.51953125,476266.28125,997.5498046875,45.68788528442383
2062710066,0.025901422502772067,-0.02731211485714835,9.822426665358435,0.00569354714095204,-0.003975689388695196,-0.0011563988113872767,133859.34375,39915.51953125,476266.28125,997.5498046875,45.68788528442383
2062720318,0.024845645429865573,-0.04777704181523246,9.82340990357865,0.0008120260943247268,-0.003613571846741275,-0.0007625257307760476,133859.34375,39915.51953125,476266.28125,997.5498046875,45.68788528442383
2062730608,0.014922593387142871,0.04505295304207879,9.80331598573197,0.0009086772959267984,-0.0017667641871376197,-0.00048482102599032813,133859.34375,39915.51953125,476266.28125,997.5498046875,45.68788528442383
2062740637,-0.014018762258513714,-0.062008094064902486,9.805335867934119,-0.012406152959767889,-0.0003664521857863526,0.0001529982660334498,133859.34375,39915.51953125,476266.28125,997.5498046875,45.68788528442383
2062752748,-0.0112089993038018,-0.005225345514725865,9.801591742567908,-0.02326276740789802,0.01147458238911347,0.0004828781061708868,133859.34375,39915.51953125,476266.28125,997.5498046875,45.68788528442383
2062760114,-0.007242600766642834,-0.043947480641316594,9.804333556227576,-0.015873989377025676,0.016822189115104243,0.0004707704470395983,133859.34375,39915.51953125,476266.28125,997.5498046875,45.68788528442383
2062770312,0.008574482651726459,-0.026306599400948705,9.807724822096716,-0.012229852665070604,0.016742499567684695,0.0004289881149209977,133859.34375,39915.51953125,476266.28125,997.5498046875,45.68788528442383
2062780245,0.009534542115704273,0.0044417008533962354,9.793721068434607,-0.002842363722477268,0.016787724591908023,-0.0007301582549795567,133859.34375,39915.51953125,476266.28125,997.5498046875,45.68788528442383
2062790342,0.03581937089778588,-0.01913791152090949,9.805725920729529,0.005370878793444325,0.015811029844102428,-0.000976560189398384,133859.34375,39915.51953125,476266.28125,997.5498046875,45.68788528442383
2062800088,0.060791087003723834,-0.050177909456204595,9.847248900465857,-0.000687211281940501,0.0064543700070352995,-0.0004859156792614668,126858.9921875,42461.10546875,473266.28125,997.5372924804688,45.68519973754883
2062810104,0.05409868493892357,-0.03448861094565314,9.847414839796912,-0.01110463431835563,-0.00528255335602446,-4.8732067322417776e-06,126858.9921875,42461.10546875,473266.28125,997.5372924804688,45.68519973754883
2062820313,0.029713176789061282,-0.014492362760018529,9.817496169142615,-0.012913787092868398,-0.010829496174934344,-0.0004402642257142871,126858.9921875,42461.10546875,473266.28125,997.5372924804688,45.68519973754883
2062830495,0.006427173169628833,-0.007490895710896672,9.80308805757035,-0.013737711410824369,-0.008844505973043875,-0.000614153879238671,126858.9921875,42461.10546875,473266.28125,997.5372924804688,45.68519973754883
2062840686,0.01648839250423119,0.007632769621897517,9.803371298842322,-0.009135462630395006,-0.004397912394139007,-0.00032880904060826296,126858.9921875,42461.10546875,473266.28125,997.5372924804688,45.68519973754883
2062850056,0.01990558639384911,-0.029125496767472447,9.809126723341834,-0.007985464583937238,-0.0018439779299078743,-9.937274486824764e-05,126858.9921875,42461.10546875,473266.28125,997.5372924804688,45.68519973754883
2062860100,0.018227834852711414,-0.07579112800211829,9.844336379103552,-0.025187854010466647,-0.0017046771020395915,0.0008037015036582888,126858.9921875,42461.10546875,473266.28125,997.5372924804688,45.68519973754883
2062870289,0.017602239402310108,0.16690511254220086,9.796326506667029,-0.07593335053682716,0.014986201211926503,0.002310420485203707,126858.9921875,42461.10546875,473266.28125,997.5372924804688,45.68519973754883
2062880324,0.04300974369265244,0.02225538340954858,9.801542151503455,-0.048315042916540214,0.012276803165790601,0.0018250495018340587,126858.9921875,42461.10546875,473266.28125,997.5372924804688,45.68519973754883
2062890314,0.04827092647768662,-0.01014905425162238,9.805467474989783,-0.02816498680770786,0.00808968583506064,0.00210493743046149,126858.9921875,42461.10546875,473266.28125,997.5372924804688,45.68519973754883
2062900118,0.025411517026201938,0.033917032159853755,9.82448469453324,-0.017659142900113178,0.003984307194245025,0.0011722069289438366,121661.765625,46173.421875,476716.3125,997.5264892578125,45.687347412109375
2062910107,0.03242025956727669,0.004050724185992061,9.828488219313513,-0.005038411177549671,0.0021907717679859836,0.00035467357932552105,121661.765625,46173.421875,476716.3125,997.5264892578125,45.687347412109375
2062920292,0.043233786376492236,-0.004231572173546971,9.819242346815955,-0.0010981435727739444,0.0010666207751491804,0.0004149366691611648,121661.765625,46173.421875,476716.3125,997.5264892578125,45.687347412109375
2062930548,0.038829882296101306,-0.0049427524432651415,9.816223967604529,-0.0006491122141891827,0.0005547245315974344,8.63975268052298e-06,121661.765625,46173.421875,476716.3125,997.5264892578125,45.687347412109375
2062940751,0.03618799582339928,-0.00028058143706244376,9.813802588515173,-0.0008208248138839116,0.0005602190437493612,-0.0005126386999715179,121661.765625,46173.421875,476716.3125,997.5264892578125,45.687347412109375
2062950103,0.036173496993557666,-0.007411658786248387,9.80977236085404,-0.000546921098459672,-6.444878026379746e-05,-0.00020524204907511022,121661.765625,46173.421875,476716.3125,997.5264892578125,45.687347412109375
2062960117,0.03367428913928673,-0.00991966577620429,9.814861167006384,-0.001098079195100974,-0.0005194656908279519,-5.91142811269093e-05,121661.765625,46173.421875,476716.3125,997.5264892578125,45.687347412109375
2062970376,0.03503752559639618,0.00228291002659875,9.811386931471716,-0.001363622194942247,-0.0006957911894424121,-6.52031698943175e-05,121661.765625,46173.421875,476716.3125,997.5264892578125,45.687347412109375
2062980255,0.029247709216849063,0.01399093119053918,9.821067679457556,-0.0007729267774561157,-0.00013930511276705665,7.93223121339396e-05,121661.765625,46173.421875,476716.3125,997.5264892578125,45.687347412109375
2062990314,0.02256676241971657,0.011998169101763545,9.821680892043005,-0.0003964296731577923,-9.040703962093693e-05,3.060201973616484e-05,121661.765625,46173.421875,476716.3125,997.5264892578125,45.687347412109375
2063002741,0.021659944804684375,0.006135039009142695,9.81793009095658,-0.0009010512687677255,0.00021021065977399695,0.0001036280414458305,135556.40625,46703.7421875,472516.34375,997.5504760742188,45.68519973754883
2063010086,0.023864135744349216,0.002001516498614131,9.817579138808142,-0.0006916144004503002,0.0005767767658689756,7.892360420859757e-05,135556.40625,46703.7421875,472516.34375,997.5504760742188,45.68519973754883
2063020337,0.026280861946121906,0.002040721453715144,9.815569747023474,-0.000404090208787631,0.0005779543359530855,8.897510682194832e-05,135556.40625,46703.7421875,472516.34375,997.5504760742188,45.68519973754883
2063030494,0.02928455978848145,0.001124329842615901,9.817026007704627,-0.00024122045873121523,0.0003353005674434592,4.616894560362551e-05,135556.40625,46703.7421875,472516.34375,997.5504760742188,45.68519973754883
2063040750,0.033623539509550784,-0.0008270144686214342,9.811504233412634,-0.00017828889688865446,0.0004907620538724352,-3.2231352329847016e-07,135556.40625,46703.7421875,472516.34375,997.5504760742188,45.68519973754883
2063050035,0.03558033764578507,-0.0021115392670146838,9.807744849257361,-0.0005340834570528676,0.0002070787820266326,-0.0003332325900070428,135556.40625,46703.7421875,472516.34375,997.5504760742188,45.68519973754883
2063060117,0.02320809349633858,-0.007457979045819463,9.814323294691931,6.819611077623279e-05,-0.0003185221060412238,-0.0002238577830818541,135556.40625,46703.7421875,472516.34375,997.5504760742188,45.68519973754883
2063070311,0.03526307702280686,-0.0038037300333492174,9.817567694716345,6.724971241744072e-05,-7.165165967331353e-06,0.0002845017411649168,135556.40625,46703.7421875,472516.34375,997.5504760742188,45.68519973754883
2063080290,0.04119789660193131,-0.0035345182046405688,9.816196311049353,-0.0003237771700082084,-0.00025828721781729263,0.0004088351675212324,135556.40625,46703.7421875,472516.34375,997.5504760742188,45.68519973754883
2063090329,0.03537954449869797,0.00030332056431847665,9.80773435883988,-0.000260006864875715,-0.00026960363110995394,0.000771062838369602,135556.40625,46703.7421875,472516.34375,997.5504760742188,45.68519973754883
2063100127,0.03569249868609116,0.0038680955544002638,9.810210097365271,0.000161045388056271,0.0002354035829775733,0.0002745780916787625,132692.625,46173.41796875,477766.21875,997.5452880859375,45.68788528442383
2063110090,0.03131251841999695,-0.001945629738282384,9.815489638380896,-4.086434931417159e-05,0.0002874622229719301,-0.00017055301165478897,132692.625,46173.41796875,477766.21875,997.5452880859375,45.68788528442383
2063120312,0.030675713571087573,-0.005765929840516271,9.80912767701615,-0.0004822853909285476,0.00046503845870026844,-0.00021611279541198757,132692.625,46173.41796875,477766.21875,997.5452880859375,45.68788528442383
2063130530,0.03023450136400864,-0.004822604380559148,9.810064185194861,-0.0005020550990888586,1.2139332015043971e-05,-8.474637567510956e-05,132692.625,46173.41796875,477766.21875,997.5452880859375,45.68788528442383
2063140665,0.029916033746973728,-0.0009526536092273608,9.808730948500525,-8.994059611034743e-05,0.0001096881139382952,-0.00016492042001723905,132692.625,46173.41796875,477766.21875,997.5452880859375,45.68788528442383
2063150089,0.02859096288897202,0.0069684907570369825,9.800241339735877,0.00018481657459012068,-0.00016400989925025505,1.0760039488872172e-05,132692.625,46173.41796875,477766.21875,997.5452880859375,45.68788528442383
2063160066,0.02977290809370682,0.009933941043902217,9.810200560622107,0.00039690072732589043,-0.0007373414476169507,-5.367766013173979e-05,132692.625,46173.41796875,477766.21875,997.5452880859375,45.68788528442383
2063170313,0.03477415502287552,0.005912937201548396,9.819876540236365,0.00030566502097605563,-0.0005361253054579954,-0.00020116430411385965,132692.625,46173.41796875,477766.21875,997.5452880859375,45.68788528442383
2063180284,0.039523963483349536,0.0024066194668300733,9.82078253083695,-4.946952252105973e-05,3.14798459876095e-05,-0.0003445450742825925,132692.625,46173.41796875,477766.21875,997.5452880859375,45.68788528442383
2063190317,0.03445999384142563,-0.004408046625565709,9.81288515382279,-0.0002597537488622328,-0.0002347726033767919,6.46095545865536e-05,132692.625,46173.41796875,477766.21875,997.5452880859375,45.68788528442383
2063200077,0.03238376289822266,-0.005477182589482488,9.804836142592322,0.0002856581311494375,-0.0007235020523658257,-0.00025124765258320266,127919.65625,40339.7890625,472216.21875,997.5438842773438,45.68519973754883
2063210081,0.033335459085480426,-0.010043099544953527,9.812839377455603,-2.954536033251486e-05,-0.00027464048552794856,-0.0005003110740896373,127919.65625,40339.7890625,472216.21875,997.5438842773438,45.68519973754883
2063220335,0.03437619716145203,-0.002950340531777562,9.810331214003455,-0.00017759133628026747,-0.00023587904369926554,0.00010716987574900839,127919.65625,40339.7890625,472216.21875,997.5438842773438,45.68519973754883
2063230486,0.03065133527137444,0.010798908747721492,9.812875617079627,0.000406454234296296,0.00010951812574055503,0.00019584742816127244,127919.65625,40339.7890625,472216.21875,997.5438842773438,45.68519973754883
2063240743,0.032579161824957584,0.011418692745257197,9.807133544020544,0.0005560883480644116,0.0002466711091110249,-0.00016459778950471093,127919.65625,40339.7890625,472216.21875,997.5438842773438,45.68519973754883
2063250125,0.03077330127574608,0.006124399580050288,9.816337454848181,0.00017177410770051948,0.0003051532045937841,-0.00040641053371169263,127919.65625,40339.7890625,472216.21875,997.5438842773438,45.68519973754883
2063260142,0.022707407029644702,-0.001632727704953374,9.811957228712927,-0.0002183598073610773,0.00042903204367028075,-0.0001898656150539465,127919.65625,40339.7890625,472216.21875,997.5438842773438,45.68519973754883
2063270295,0.0275049662611644,-0.0020263642296306505,9.809573996596228,-0.0002988772132379671,5.5180324765364554e-05,-0.0005129741798251926,127919.65625,40339.7890625,472216.21875,997.5438842773438,45.68519973754883
2063280299,0.03444701493002579,-0.0009287148937694445,9.806013930373084,-8.83861168699076e-05,-6.533340574244511e-05,-0.0004333896972335934,127919.65625,40339.7890625,472216.21875,997.5438842773438,45.68519973754883
2063290315,0.034055285753981326,0.0014996081367023573,9.808072913222205,0.00029078154035921044,-0.00016563040053008598,0.00038067514518238014,127919.65625,40339.7890625,472216.21875,997.5438842773438,45.68519973754883
2063300036,0.03499575764156983,-0.0029803291186801806,9.807672370009314,0.0001508647371952685,4.064793820723417e-05,0.0005768890664815844,131950.171875,38854.8671875,471766.28125,997.5380249023438,45.68412399291992
2063310123,0.02046722606040642,-0.005528837464760961,9.813311446242224,-0.0004227524579914024,0.0003282145705306669,8.451717124748382e-05,131950.171875,38854.8671875,471766.28125,997.5380249023438,45.68412399291992
2063320334,0.02593251750089333,-0.0031056478843204394,9.8138912802266,-0.00039865052825228476,0.00032938991417174685,-0.0005289159484770208,131950.171875,38854.8671875,471766.28125,997.5380249023438,45.68412399291992
2063330510,0.030042470099703525,-0.00011088701338690665,9.812927115492712,-0.00016385456113533281,4.9396309535927054e-05,-0.0002711937154041662,131950.171875,38854.8671875,471766.28125,997.5380249023438,45.68412399291992
2063340691,0.035580900164620136,0.0022558644190319166,9.81642519288529,-2.5285898329850055e-05,3.398965846279162e-05,-9.639873630172235e-05,131950.171875,38854.8671875,471766.28125,997.5380249023438,45.68412399291992
2063350095,0.031248786153570865,0.001707866765547572,9.820872176222693,0.00010431901934459177,0.0001217137311905156,0.0005660772845052124,131950.171875,38854.8671875,471766.28125,997.5380249023438,45.68412399291992
2063360112,0.027408384384886478,0.004876993574190913,9.82208048158158,-0.0003975206011386325,0.00022379289357920634,0.0006275921300888003,131950.171875,38854.8671875,471766.28125,997.5380249023438,45.68412399291992
2063370320,0.03641212418891594,-0.0007519647702686205,9.808227408461462,-0.0007070390231387427,9.667628246822852e-05,0.0004111067796960414,131950.171875,38854.8671875,471766.28125,997.5380249023438,45.68412399291992
2063380289,0.036219664516226505,0.0024583562984951124,9.80526911073197,0.00028296059896780945,-0.0002986282700440149,0.0003007136515710444,131950.171875,38854.8671875,471766.28125,997.5380249023438,45.68412399291992
2063390294,0.02779229417659447,0.007063306845713435,9.811506140761267,0.0005732514589613566,-0.00025093823869249326,0.0003285421812809945,131950.171875,38854.8671875,471766.28125,997.5380249023438,45.68412399291992
2063400123,0.03074414342858002,0.00724201647191125,9.815187323622595,0.0003601143878473232,-0.00044440225546716255,0.0002816418532650859,131207.703125,43203.5625,473566.3125,997.5194091796875,45.684661865234375
2063410108,0.03324793711520836,0.00124366579203683,9.817239630751502,0.00045065107839724816,-0.0005984768861672144,0.0004140588394269288,131207.703125,43203.5625,473566.3125,997.5194091796875,45.684661865234375
2063420312,0.03334433272697136,0.002585835732508479,9.815245497755896,-4.603451382757328e-05,-7.287841371728581e-05,0.00018311031138486567,131207.703125,43203.5625,473566.3125,997.5194091796875,45.684661865234375
2063430507,0.02190240159846947,0.013656429924059688,9.812160361342322,0.0003086614786003048,0.00028821107908149707,0.00026885252421683973,131207.703125,43203.5625,473566.3125,997.5194091796875,45.684661865234375
2063440599,0.015647490175739978,0.013076849259424983,9.811119902663123,0.0006688591136185715,0.00029354287171734023,4.569820569790307e-05,131207.703125,43203.5625,473566.3125,997.5194091796875,45.684661865234375
2063450058,0.03027817294217751,0.004112891830492793,9.814460623793494,0.00037738500829397536,-0.00012597125105096501,-0.00020603380423077044,131207.703125,43203.5625,473566.3125,997.5194091796875,45.684661865234375
2063460040,0.0404759167156379,0.010665170826006709,9.81939207368363,-0.0001673390463405957,-0.00016382177209018272,-0.0002678656341837778,131207.703125,43203.5625,473566.3125,997.5194091796875,45.684661865234375
2063470273,0.028642397972122882,0.011551715411234675,9.813744414381873,-0.00046448281066880726,0.000360862563597015,-2.899379930263978e-05,131207.703125,43203.5625,473566.3125,997.5194091796875,45.684661865234375
2063480261,0.025149118753449176,0.006477750815439998,9.813892233900916,-0.00029703799667225384,0.00043045795673967796,0.0003426511071059794,131207.703125,43203.5625,473566.3125,997.5194091796875,45.684661865234375
2063490304,0.025335975589529727,0.0018727257624157057,9.811170447401892,-0.00026727601219357156,-0.0001690624115290354,0.0005655760583370865,131207.703125,43203.5625,473566.3125,997.5194091796875,45.684661865234375
2063500140,0.038555931898133014,-0.0001912638768665209,9.811031210951697,0.00013092211954023525,-0.00021797870367302102,0.00029709345520436174,129616.7265625,40764.046875,480316.3125,997.5260009765625,45.69003677368164
2063510114,0.02390065103985474,0.0037102773561962232,9.808854926161658,0.00047659923872521914,-0.0002790198553120951,-5.450232080571015e-05,129616.7265625,40764.046875,480316.3125,997.5260009765625,45.69003677368164
2063520300,0.02450276971079514,0.008999966062594233,9.8146818762349,0.00044771153331345714,-9.728638478557122e-05,-0.00022684321763031778,129616.7265625,40764.046875,480316.3125,997.5260009765625,45.69003677368164
2063530506,0.025544372054115985,0.009553305782366572,9.815047133498084,0.0006776522539144645,-0.00026199050561992926,-1.870008733627048e-05,129616.7265625,40764.046875,480316.3125,997.5260009765625,45.69003677368164
2063540713,0.02715503484226868,0.0081489458456524,9.811132300429236,-7.279909480751655e-05,-0.00032286026480144364,-6.294343935829249e-05,129616.7265625,40764.046875,480316.3125,997.5260009765625,45.69003677368164
2063550093,0.0334435372076194,0.006219215668726741,9.801887381605994,-7.714444221385918e-05,5.041649914323267e-06,0.0003258460606351436,129616.7265625,40764.046875,480316.3125,997.5260009765625,45.69003677368164
2063560030,0.031331908556000446,0.010327629722643672,9.805280554823767,-4.729050418284885e-05,0.000117019668963598,0.00026540118827446705,129616.7265625,40764.046875,480316.3125,997.5260009765625,45.69003677368164
2063570361,0.027052794250027393,0.01853228358178216,9.811032164626013,-4.321781601214013e-05,-0.00022479877888693017,5.770317196342501e-05,129616.7265625,40764.046875,480316.3125,997.5260009765625,45.69003677368164
2063580304,0.02802340746142075,0.01604021338372308,9.815720427565466,-2.961538414859376e-05,-0.00023211033048576218,0.00018234077700375918,129616.7265625,40764.046875,480316.3125,997.5260009765625,45.69003677368164
2063590325,0.023487385960594867,0.008279554523516475,9.809302199416052,0.0003943285889977852,-3.461870737376166e-05,0.0003473863294251204,129616.7265625,40764.046875,480316.3125,997.5260009765625,45.69003677368164
2063600151,0.02169110313274071,-0.0013037547692767992,9.81844221406449,0.0002092115799019376,-0.0004579791923752288,0.00022208677231296304,131631.984375,46173.41796875,474016.28125,997.5567626953125,45.69003677368164
2063610107,0.02673275083519623,-0.006762102268647374,9.818568099074255,-0.0003792759919019153,-0.0003687594792573015,-0.00010001922552569897,131631.984375,46173.41796875,474016.28125,997.5567626953125,45.69003677368164
2063620321,0.033516679557339404,-0.0016416982039920702,9.819217551283728,-0.0005063609525972714,-6.131281342825395e-05,-0.000122932867695141,131631.984375,46173.41796875,474016.28125,997.5567626953125,45.69003677368164
2063630591,0.033931743951813434,0.0081022009029873,9.817020285658728,-0.00036611401740850114,0.00016142022259734795,-0.0002852953361677065,131631.984375,46173.41796875,474016.28125,997.5567626953125,45.69003677368164
2063640707,0.03134451866366074,0.0020868405476101026,9.813241828017127,-0.0001838044802138319,0.0002847166549181332,-0.00019565105637107637,131631.984375,46173.41796875,474016.28125,997.5567626953125,45.69003677368164
2063650120,0.024627540858761524,-0.002390369795273961,9.814222205214392,-0.0004927196380162349,-6.070121098312092e-05,0.000389182806005323,131631.984375,46173.41796875,474016.28125,997.5567626953125,45.69003677368164
2063660059,0.02108429059602425,-0.00240328165144843,9.811644423537146,-0.000840066229313772,-0.00035352886270268363,-2.4740078030532567e-05,131631.984375,46173.41796875,474016.28125,997.5567626953125,45.69003677368164
2063670330,0.019824501725212787,-0.0008110776767246142,9.808247435622107,-0.0006763792436981311,-0.00032604957895821435,-0.00024209675345142033,131631.984375,46173.41796875,474016.28125,997.5567626953125,45.69003677368164
2063680247,0.03116874829150841,0.0077660605087764845,9.814347136549841,0.0002755483335636819,0.00016128120360369786,-8.405221293892839e-05,131631.984375,46173.41796875,474016.28125,997.5567626953125,45.69003677368164
2063690321,0.03088469118096039,0.00783664730935174,9.813188422255408,0.0007037952934911738,0.00017062852994420092,0.00022094980207234028,131631.984375,46173.41796875,474016.28125,997.5567626953125,45.69003677368164
2063702744,0.02795091703750298,0.00474933532624322,9.813985693983923,1.7539333173379533e-05,0.00032658376649485427,0.00037196692986375993,133010.8125,42036.83984375,477166.1875,997.5379638671875,45.68358612060547
2063710065,0.02654514521576569,0.0043250992670543775,9.819242346815955,0.0002582876375232155,0.00022784327366386997,0.0001640365340184361,133010.8125,42036.83984375,477166.1875,997.5379638671875,45.68358612060547
2063720343,0.02396708786703751,-0.003096282504510106,9.813236105971228,8.723925545161194e-05,2.4024827056541023e-05,-0.00016849848495135677,133010.8125,42036.83984375,477166.1875,997.5379638671875,45.68358612060547
2063730513,0.026481163354889606,0.0005555525198467359,9.813502181105505,-2.3546628948969316e-06,0.00029080085433085906,-0.00047261016467624003,133010.8125,42036.83984375,477166.1875,997.5379638671875,45.68358612060547
2063740673,0.018653672786728595,0.000637605763960658,9.80495058351029,0.00018822253766081131,0.00020298100635407018,-0.00015007362841666338,133010.8125,42036.83984375,477166.1875,997.5379638671875,45.68358612060547
2063750111,0.02107821092225716,-0.008460678182553472,9.802706587843787,4.872204660165892e-05,0.00012220221533786963,0.00013755767989400181,133010.8125,42036.83984375,477166.1875,997.5379638671875,45.68358612060547
2063760042,0.02967418790079758,-0.0021619349941722765,9.809227812819373,-0.0001863955942393949,6.95468413177644e-05,0.0006067479667156876,133010.8125,42036.83984375,477166.1875,997.5379638671875,45.68358612060547
2063770305,0.03153657600499794,0.0007144137993343458,9.814065802626502,-3.459178991072974e-05,-0.0001796479112236063,0.0009174933480001927,133010.8125,42036.83984375,477166.1875,997.5379638671875,45.68358612060547
2063780330,0.028122589590327,0.0008264928832538709,9.819976676039587,-4.612101041169069e-05,-0.00035233642056121034,0.00014025332032665017,133010.8125,42036.83984375,477166.1875,997.5379638671875,45.68358612060547
2063790313,0.022375044079796527,-0.006275035463284673,9.822258818678748,0.00019027811937809757,-7.906438922511888e-05,-0.00018229102303544652,133010.8125,42036.83984375,477166.1875,997.5379638671875,45.68358612060547
2063800042,0.02793834418274567,-0.004566945157956304,9.812834609084021,4.558288198274397e-05,0.0005122040099231292,-0.00013555025677001697,131631.96875,45324.88671875,472966.3125,997.5089111328125,45.68842697143555
2063810116,0.027588751765267108,-0.006007969401787938,9.805641043715369,-0.0002728879874052217,6.572627235434475e-05,3.97990928226489e-06,131631.96875,45324.88671875,472966.3125,997.5089111328125,45.68842697143555
2063820324,0.03131649330474541,0.006945006526995479,9.806035864882361,0.00020536526860047899,0.00039757778786586123,-0.00014971776132975367,131631.96875,45324.88671875,472966.3125,997.5089111328125,45.68842697143555
2063830503,0.02989658028103516,0.008822061099100886,9.812293875746619,0.0008502365133313725,0.0004202798815676709,-0.0005043521118447244,131631.96875,45324.88671875,472966.3125,997.5089111328125,45.68842697143555
2063840695,0.02824749484874413,0.013963140524912654,9.807719100050818,0.0008996233271023522,-4.6044099959568206e-05,-0.00016133744744971056,131631.96875,45324.88671875,472966.3125,997.5089111328125,45.68842697143555
2063850102,0.0328123687229316,0.004775024928141414,9.811179984145056,0.0002703878606258223,-0.0003562040285906057,0.0002443448288734943,131631.96875,45324.88671875,472966.3125,997.5089111328125,45.68842697143555
2063860132,0.03712224647618935,-0.007646039150666417,9.808513510756384,-0.0001724369314910581,0.0001480510871524296,-7.492934079587587e-05,131631.96875,45324.88671875,472966.3125,997.5089111328125,45.68842697143555
2063870391,0.030033406468407367,-0.008892945967625798,9.811702597670447,-0.0008851943377816787,0.0003476684584747766,-0.00048020504206456834,131631.96875,45324.88671875,472966.3125,997.5089111328125,45.68842697143555
2063880258,0.02019632294990227,-0.006588421784352483,9.806243765883337,-0.0007748319141978135,0.00018696431716668877,-0.0002880295246237948,131631.96875,45324.88671875,472966.3125,997.5089111328125,45.68842697143555
2063890326,0.02360397264577553,-0.006342656932782353,9.807398665480505,-0.00046303926067815327,6.315218406959894e-05,-0.00019846001256760803,131631.96875,45324.88671875,472966.3125,997.5089111328125,45.68842697143555
2063902780,0.027244330050722812,-0.0019743293747417345,9.803489554457556,-0.00044883286612496876,-0.0006585553413024406,-8.401119108989962e-05,131207.703125,39385.18359375,477016.28125,997.5575561523438,45.69487380981445
2063910087,0.03267667874910042,-0.00014178457112234977,9.800905097060095,-0.00046481866887227797,-0.0005170584548032145,-0.0005535913109876274,131207.703125,39385.18359375,477016.28125,997.5575561523438,45.69487380981445
2063920322,0.035773620607630466,-0.00209829958529395,9.81230150514115,-0.0005964916156084945,-0.0003942297546891729,-0.0005228757686078607,131207.703125,39385.18359375,477016.28125,997.5575561523438,45.69487380981445
2063930491,0.03967704311229393,0.009289436019945918,9.819722044997107,-0.0001720841930659225,-0.0004507694750791649,-0.00010753996749977534,131207.703125,39385.18359375,477016.28125,997.5575561523438,45.69487380981445
2063940690,0.03668744549371407,0.011725641764689265,9.818458426527869,1.987350403175526e-05,0.00016543068586904547,0.0003205599028054566,131207.703125,39385.18359375,477016.28125,997.5575561523438,45.69487380981445
2063952765,0.0356308823845546,0.0027636363878734693,9.812292922072302,2.513310461615049e-05,0.0001487826863958383,-0.0002209089102204017,131207.703125,39385.18359375,477016.28125,997.5575561523438,45.69487380981445
2063960087,0.03253371700860665,0.0006629973426349745,9.810888159804236,8.997473448068206e-05,0.000137521316632023,-0.0005059009594939708,131207.703125,39385.18359375,477016.28125,997.5575561523438,45.69487380981445
2063970320,0.025996197613255237,0.006572358287859736,9.808297980360877,4.2620784075262475e-06,-7.409876643216712e-05,-0.0002594767024371832,131207.703125,39385.18359375,477016.28125,997.5575561523438,45.69487380981445
2063980286,0.027829018088356708,0.008403383173037349,9.807192671828162,-0.00022878511957281434,-7.486591429917616e-05,0.0002051661254275531,131207.703125,39385.18359375,477016.28125,997.5575561523438,45.69487380981445
2063990434,0.029099237772003864,0.013060815609980403,9.811991560988318,-0.00018483172901363277,0.00023519636370472136,0.0004540378982104302,131207.703125,39385.18359375,477016.28125,997.5575561523438,45.69487380981445
2064002788,0.02450661421038315,0.003245197214175044,9.811673033766638,-0.00014826931440659963,0.00038553762051740187,0.000609618652136618,129298.5234375,44052.1015625,475366.3125,997.5477294921875,45.691650390625
2064010098,0.031063568445221637,-0.004623085282754125,9.813846457533728,3.6387366678871446e-05,0.00031371248106004196,0.0002848217377807886,129298.5234375,44052.1015625,475366.3125,997.5477294921875,45.691650390625
2064020318,0.03284673080064461,-0.0006399154886714831,9.815910208754431,-0.0002110413872582575,4.874151700639623e-05,-0.00030464695325159127,129298.5234375,44052.1015625,475366.3125,997.5477294921875,45.691650390625
2064030526,0.021581780763642047,-0.0020894333943836108,9.818804610304724,-0.0002309071380590757,-0.00019825716235211593,-0.0002975795536864608,129298.5234375,44052.1015625,475366.3125,997.5477294921875,45.691650390625
2064040736,0.02970916465140984,-0.005873389564465703,9.818175185255896,-0.00034098780746028923,0.0003325246149906655,-0.000201325670301827,129298.5234375,44052.1015625,475366.3125,997.5477294921875,45.691650390625
2064050087,0.03155192047573731,-0.004968248330067815,9.810803282790076,-0.0001237546777996903,0.0001469074162806458,0.00022697665238715115,129298.5234375,44052.1015625,475366.3125,997.5477294921875,45.691650390625
2064060158,0.02859912127472565,-0.007040873192261876,9.807367194228064,-0.00020842600063809358,0.00016573294370025388,0.00018133590904957953,129298.5234375,44052.1015625,475366.3125,997.5477294921875,45.691650390625
2064070324,0.03219258472539589,-0.0005820766314975634,9.811244833998572,-2.1731132005078268e-06,0.00023022492742163586,-0.00021752898052605462,129298.5234375,44052.1015625,475366.3125,997.5477294921875,45.691650390625
2064080258,0.027597673835531925,0.007651858009386836,9.80719839387406,0.0003565261765903125,0.000347164190956368,-0.0002875345412273019,129298.5234375,44052.1015625,475366.3125,997.5477294921875,45.691650390625
2064090331,0.02279881820298836,0.005847804225970088,9.804050314955603,3.415141397232958e-05,0.0002466345765278441,2.208542403727177e-05,129298.5234375,44052.1015625,475366.3125,997.5477294921875,45.691650390625
2064100089,0.025754452349917148,-0.00018537046761435416,9.812641966872107,-0.000338295935973685,1.4896861743158576e-05,0.0003983881729558051,133116.90625,42142.9140625,473866.21875,997.5164794921875,45.68950271606445
2064110034,0.036400348546282504,-0.006680645070981206,9.808487761549841,-0.0002855269369614979,1.0743992519541559e-05,6.338541910139503e-06,133116.90625,42142.9140625,473866.21875,997.5164794921875,45.68950271606445
2064120289,0.03891290784098313,-0.0021505058035365954,9.821309912733923,-0.000374783786567088,0.0003597900583408539,0.0002896898481897951,133116.90625,42142.9140625,473866.21875,997.5164794921875,45.68950271606445
2064130524,0.032651138158814166,0.0015625655427463636,9.82134519868363,0.00032362933122164405,0.0002622780018136603,0.0004343441510476113,133116.90625,42142.9140625,473866.21875,997.5164794921875,45.68950271606445
2064140676,0.029614549728409503,0.0073280557766445265,9.816544402174841,0.0005169138355700562,0.0004462304284097393,0.00018339034844152037,133116.90625,42142.9140625,473866.21875,997.5164794921875,45.68950271606445
2064150074,0.06535944588698551,0.019362322963763057,9.841716635756384,0.0017747468707671652,-0.010729857697966532,0.0001449826345682085,133116.90625,42142.9140625,473866.21875,997.5164794921875,45.68950271606445
2064160081,0.05257088005758927,0.05326051262765008,9.842830527357947,0.011782075923081328,-0.021020870633306935,-0.0004664902403116285,133116.90625,42142.9140625,473866.21875,997.5164794921875,45.68950271606445
2064170334,0.01070274099923775,-0.021006397925328435,9.797786582045447,0.027854725431796002,-0.024960637070122197,-0.0011235767919667125,133116.90625,42142.9140625,473866.21875,997.5164794921875,45.68950271606445
2064180277,-0.01689771875522926,-0.009591229282330693,9.781208861403357,0.02621130989133923,-0.012134202733519511,-0.0002999548628091871,133116.90625,42142.9140625,473866.21875,997.5164794921875,45.68950271606445
2064190372,-0.003850373772605206,-0.041378043614339055,9.78684698396195,0.018177983995672154,0.0005384433831786503,0.00011649456840436313,133116.90625,42142.9140625,473866.21875,997.5164794921875,45.68950271606445
2064202793,0.018430602403656696,-0.011369071923207463,9.802073348097693,0.0008294162733068953,0.010708841517684026,0.0006096539841867924,132162.3125,38006.3359375,473116.21875,997.5349731445312,45.693260192871094
2064212549,0.033942055555359577,0.01516740766911584,9.813255179457556,0.0020254800954422245,0.008206311635789438,0.0003952870434053183,132162.3125,38006.3359375,473116.21875,997.5349731445312,45.693260192871094
